q0,q1,q2,q3,MotionDeg,Roll,Pitch,Yaw,accX,accZ,0
0.7656,-0.6369,-0.0478,0.0759,0.034169678,-79.65019,182.27351,185.3836,-0.019,0.1865,51
0.7658,-0.6367,-0.0478,0.076,0.054666903,-79.61805,182.27982,185.4005,-0.0229,0.1845,51
0.7659,-0.6366,-0.0477,0.0761,0.07217973,-79.601845,182.3039,185.4288,-0.0239,0.1948,51
0.766,-0.6365,-0.0476,0.0761,0.10184765,-79.58543,182.3157,185.44225,-0.0214,0.1884,51
0.7661,-0.6363,-0.0475,0.0762,0.120176,-79.560394,182.33829,185.47147,-0.0405,0.1835,51
0.7662,-0.6362,-0.0474,0.0762,0.13599391,-79.54397,182.3501,185.48486,-0.0385,0.1855,51
0.7662,-0.6361,-0.0473,0.0763,0.14623626,-79.53508,182.37566,185.51308,-0.0375,0.1855,51
0.7663,-0.6361,-0.0473,0.0764,0.17363206,-79.527916,182.38635,185.528,-0.0361,0.1787,51
0.7664,-0.636,-0.0472,0.0766,0.18619478,-79.51186,182.42258,185.5711,-0.0307,0.187,51
0.7664,-0.6359,-0.0472,0.0767,0.20717202,-79.503235,182.43332,185.58687,-0.0361,0.1831,51
0.7665,-0.6358,-0.0473,0.0769,0.22073671,-79.48771,182.43993,185.60513,-0.0273,0.1894,51
0.7665,-0.6357,-0.0473,0.077,0.23736331,-79.47907,182.45064,185.6209,-0.0351,0.1879,51
0.7666,-0.6356,-0.0474,0.0771,0.25131968,-79.46337,182.44502,185.6243,-0.0283,0.1831,51
0.7666,-0.6356,-0.0474,0.0773,0.26381725,-79.463745,182.46942,185.654,-0.0327,0.1914,51
0.7666,-0.6355,-0.0475,0.0774,0.290827,-79.45539,182.46533,185.65738,-0.0244,0.1923,51
0.7667,-0.6354,-0.0475,0.0776,0.29861602,-79.43958,182.48668,185.68803,-0.0278,0.1914,51
0.7667,-0.6354,-0.0475,0.0777,0.30556202,-79.439766,182.49886,185.70288,-0.0244,0.187,51
0.7667,-0.6354,-0.0476,0.0778,0.3138196,-79.44024,182.49626,185.70534,-0.0229,0.1845,51
0.7667,-0.6354,-0.0476,0.0779,0.322274,-79.44042,182.50845,185.7202,-0.0283,0.187,51
0.7667,-0.6354,-0.0476,0.078,0.3370516,-79.440605,182.52065,185.73505,-0.0312,0.1948,51
0.7667,-0.6353,-0.0476,0.0781,0.3370516,-79.43196,182.53133,185.75082,-0.0249,0.1943,51
0.7667,-0.6353,-0.0476,0.0781,0.3370516,-79.43196,182.53133,185.75082,-0.0317,0.1889,51
0.7667,-0.6353,-0.0476,0.0781,0.3370516,-79.43196,182.53133,185.75082,-0.0249,0.1899,51
0.7667,-0.6353,-0.0476,0.0781,0.34570962,-79.43196,182.53133,185.75082,-0.0258,0.185,51
0.7667,-0.6353,-0.0476,0.0782,0.3545242,-79.432144,182.5435,185.76567,-0.0297,0.1904,51
0.7667,-0.6353,-0.0476,0.0783,0.36473718,-79.43232,182.5557,185.78052,-0.0288,0.1953,51
0.7668,-0.6352,-0.0476,0.0783,0.36563945,-79.41615,182.5526,185.78146,-0.0278,0.1894,51
0.7668,-0.6352,-0.0475,0.0783,0.36563945,-79.415855,182.56738,185.79385,-0.0273,0.1894,51
0.7668,-0.6352,-0.0475,0.0783,0.36689922,-79.415855,182.56738,185.79385,-0.0302,0.1884,51
0.7668,-0.6352,-0.0474,0.0783,0.36689922,-79.41556,182.58217,185.80624,-0.0312,0.1914,51
0.7668,-0.6352,-0.0474,0.0783,0.3790451,-79.41556,182.58217,185.80624,-0.0224,0.1933,51
0.7669,-0.6351,-0.0473,0.0783,0.3790451,-79.39908,182.59386,185.81956,-0.0297,0.1958,51
0.7669,-0.6351,-0.0473,0.0783,0.39181748,-79.39908,182.59386,185.81956,-0.0263,0.1914,51
0.767,-0.635,-0.0472,0.0783,0.3860885,-79.3826,182.60555,185.83287,-0.0317,0.1923,51
0.767,-0.635,-0.0471,0.0782,0.38862944,-79.382126,182.60815,185.8304,-0.0214,0.1967,51
0.767,-0.635,-0.047,0.0782,0.3871075,-79.38182,182.62294,185.84279,-0.0317,0.1992,51
0.767,-0.635,-0.0468,0.0781,0.38727042,-79.381035,182.64034,185.8527,-0.0356,0.1875,51
0.767,-0.635,-0.0466,0.078,0.39398253,-79.38023,182.65773,185.86263,-0.04,0.1899,51
0.7671,-0.635,-0.0464,0.0779,0.40823832,-79.37209,182.67354,185.87254,-0.0458,0.1977,51
0.7672,-0.6349,-0.0461,0.0777,0.42664832,-79.354645,182.69046,185.88086,-0.0395,0.2084,51
0.7673,-0.6348,-0.0458,0.0775,0.44870725,-79.33719,182.7074,185.88916,-0.0317,0.2016,51
0.7674,-0.6347,-0.0455,0.0773,0.46392676,-79.31973,182.72435,185.89743,-0.039,0.206,51
0.7675,-0.6347,-0.0453,0.0772,0.49382693,-79.311584,182.74017,185.90727,-0.0458,0.2001,51
0.7676,-0.6346,-0.045,0.0771,0.5173359,-79.29426,182.76929,185.93034,-0.0463,0.2006,51
0.7677,-0.6345,-0.0448,0.077,0.5426315,-79.27726,182.78363,185.94104,-0.0468,0.2031,51
0.7678,-0.6343,-0.0447,0.077,0.5809712,-79.251915,182.79385,185.95506,-0.0473,0.2089,51
0.768,-0.6341,-0.0445,0.077,0.63321936,-79.21888,182.81726,185.98135,-0.0502,0.2036,51
0.7683,-0.6337,-0.0444,0.0771,0.6633178,-79.16132,182.83347,186.01173,-0.0463,0.2021,51
0.7685,-0.6336,-0.0443,0.0773,0.6919669,-79.137726,182.86775,186.0544,-0.0512,0.2119,51
0.7686,-0.6334,-0.0442,0.0774,0.7208649,-79.11247,182.89003,186.08316,-0.062,0.2065,51
0.7687,-0.6333,-0.044,0.0775,0.7400062,-79.09568,182.92851,186.12334,-0.0712,0.2104,51
0.7688,-0.6332,-0.0439,0.0775,0.8236193,-79.07913,182.94017,186.13638,-0.0698,0.2045,51
0.7692,-0.6327,-0.0434,0.0772,0.84890956,-79.00339,182.96391,186.15715,-0.1083,0.1992,51
0.7694,-0.6324,-0.0435,0.0772,0.86415386,-78.962585,182.94156,186.14719,-0.1083,0.1943,51
0.7696,-0.6322,-0.0437,0.0773,0.8850282,-78.93114,182.91798,186.13896,-0.1166,0.1967,51
0.7698,-0.6319,-0.044,0.0775,0.8879245,-78.891335,182.89023,186.13416,-0.1118,0.1992,51
0.7699,-0.6317,-0.0445,0.0778,0.89579535,-78.868546,182.84807,186.11899,-0.1166,0.2001,51
0.77,-0.6315,-0.0451,0.0782,0.9052108,-78.846245,182.80318,186.10645,-0.1108,0.1909,51
0.7701,-0.6312,-0.0461,0.0785,0.9330676,-78.81634,182.6859,186.0312,-0.1005,0.186,51
0.7703,-0.6309,-0.0472,0.0787,1.0199482,-78.779144,182.54036,185.92912,-0.0893,0.1928,51
0.7707,-0.6303,-0.0486,0.0789,1.1399096,-78.70143,182.34315,185.79355,-0.0712,0.1782,51
0.7712,-0.6296,-0.0501,0.0789,1.2694081,-78.60701,182.1045,185.61797,-0.0751,0.2041,51
0.7716,-0.6289,-0.0515,0.0789,1.3887372,-78.51911,181.88231,185.45526,-0.0791,0.1801,51
0.7719,-0.6284,-0.0527,0.0792,1.4925371,-78.456184,181.72989,185.35954,-0.101,0.1567,51
0.772,-0.6281,-0.0538,0.0798,1.5958706,-78.426,181.63382,185.31818,-0.125,0.1289,51
0.7719,-0.628,-0.0548,0.081,1.7133712,-78.429634,181.62973,185.37505,-0.1479,0.1147,51
0.7717,-0.6281,-0.0558,0.0826,1.8866311,-78.45955,181.67786,185.48854,-0.1635,0.0795,51
0.7715,-0.6279,-0.057,0.0843,2.0827262,-78.463646,181.70384,185.5957,-0.1689,0.0551,51
0.7714,-0.6276,-0.0581,0.0861,2.270559,-78.45184,181.75314,185.73097,-0.1435,0.0698,51
0.7713,-0.6275,-0.0591,0.0879,2.4663897,-78.45775,181.82025,185.87613,-0.1166,0.0751,51
0.771,-0.6274,-0.0596,0.0902,2.4303,-78.47873,182.02316,186.1551,-0.0336,0.1186,51
0.771,-0.6275,-0.0591,0.0902,2.2831268,-78.48641,182.09816,186.21452,-0.0039,0.1728,51
0.7712,-0.6275,-0.0582,0.0889,2.0839334,-78.46594,182.07253,186.13223,0.0395,0.1992,51
0.7717,-0.6273,-0.057,0.0867,1.8709673,-78.40277,181.97604,185.95612,0.0605,0.2309,51
0.7726,-0.6268,-0.0554,0.0835,1.7392712,-78.28043,181.80933,185.6845,0.0771,0.2719,51
0.7737,-0.6261,-0.0536,0.0797,1.7720666,-78.12418,181.59666,185.35051,0.0688,0.2792,51
0.775,-0.6252,-0.0515,0.0755,1.9925869,-77.93457,181.37772,184.99527,0.0571,0.2695,51
0.7764,-0.6242,-0.0496,0.0713,2.337449,-77.72982,181.13026,184.61652,0.0058,0.2993,51
0.7778,-0.623,-0.0479,0.0673,2.7021632,-77.5086,180.87822,184.24461,-0.0327,0.3076,51
0.7791,-0.6218,-0.0465,0.0639,2.9790347,-77.296974,180.65723,183.92456,-0.0825,0.3125,51
0.78,-0.621,-0.0455,0.0614,3.087713,-77.15297,180.49406,183.68471,-0.1303,0.2973,51
0.7802,-0.6209,-0.0446,0.0602,2.9790719,-77.12573,180.48305,183.61572,-0.1801,0.269,51
0.7796,-0.6217,-0.0436,0.0607,2.6701586,-77.24099,180.70213,183.79822,-0.2041,0.2475,51
0.7781,-0.6234,-0.0431,0.0624,2.3026469,-77.50445,181.00873,184.09001,-0.2207,0.208,51
0.7764,-0.6253,-0.0433,0.0644,2.0280259,-77.8014,181.25569,184.34238,-0.2324,0.2011,51
0.7752,-0.6267,-0.0445,0.0656,1.940317,-78.01741,181.25241,184.36267,-0.2104,0.2143,51
0.7746,-0.6271,-0.0466,0.0655,2.0563145,-78.09868,180.94408,184.09218,-0.1484,0.2543,51
0.7749,-0.6268,-0.0489,0.0644,2.2664924,-78.048195,180.46875,183.65837,-0.0776,0.3046,51
0.7754,-0.6262,-0.0508,0.0628,2.5380456,-77.95257,179.9877,183.20337,-0.0263,0.3496,51
0.7754,-0.6264,-0.0517,0.0595,2.5447938,-77.95607,179.46617,182.60884,-0.0297,0.3662,51
0.7747,-0.6274,-0.051,0.0583,2.5173132,-78.09146,179.44328,182.50291,-0.0605,0.3403,51
0.7737,-0.6288,-0.0501,0.0573,2.5169725,-78.2853,179.47984,182.44543,-0.1108,0.3188,51
0.7727,-0.6302,-0.0495,0.0563,2.558225,-78.47873,179.47148,182.35225,-0.1538,0.2988,51
0.7719,-0.6313,-0.0495,0.0553,2.640407,-78.63003,179.36893,182.19026,-0.1582,0.2729,51
0.7713,-0.6321,-0.0499,0.0542,2.997428,-78.73884,179.18959,181.96838,-0.1513,0.2719,51
0.7708,-0.6328,-0.0517,0.0509,3.2462468,-78.816376,178.53278,181.25145,-0.0825,0.2929,51
0.7709,-0.6328,-0.0526,0.0488,3.8436964,-78.79474,178.14326,180.83192,-0.0581,0.2944,51
0.7715,-0.6323,-0.054,0.0438,4.6565657,-78.67136,177.32031,179.93246,-0.0498,0.3178,51
0.7724,-0.6317,-0.0542,0.0367,4.8780947,-78.50531,176.42117,178.87407,-0.0771,0.3217,51
0.7723,-0.6319,-0.0538,0.0346,5.080944,-78.518234,176.22679,178.60919,-0.0781,0.3227,51
0.772,-0.6325,-0.0533,0.0326,5.296354,-78.58226,176.06157,178.36493,-0.083,0.3281,51
0.7716,-0.633,-0.0526,0.0305,5.525641,-78.64534,175.91237,178.12994,-0.0756,0.33,51
0.7713,-0.6336,-0.0517,0.0283,5.7925067,-78.710846,175.78043,177.90442,-0.0859,0.3461,51
0.771,-0.6342,-0.0506,0.0258,6.08942,-78.775795,175.64066,177.65884,-0.083,0.3579,51
0.7708,-0.6346,-0.0494,0.0231,6.401641,-78.81536,175.48965,177.39893,-0.0893,0.3691,51
0.7706,-0.6351,-0.048,0.0203,6.719066,-78.86484,175.35585,177.14764,-0.0874,0.3618,51
0.7704,-0.6355,-0.0468,0.0175,7.005158,-78.90409,175.19135,176.87308,-0.1054,0.3706,51
0.7702,-0.6359,-0.0457,0.015,7.245883,-78.94486,175.04822,176.63084,-0.1152,0.3784,51
0.7699,-0.6363,-0.0449,0.0129,7.427565,-78.99335,174.90874,176.4102,-0.1259,0.3833,51
0.7695,-0.6369,-0.0445,0.0113,7.5504966,-79.06686,174.77074,176.21194,-0.1323,0.3715,51
0.769,-0.6375,-0.0445,0.0102,7.6142235,-79.14764,174.63379,176.03761,-0.1333,0.352,51
0.7683,-0.6383,-0.045,0.0096,7.64419,-79.259476,174.48296,175.87172,-0.1225,0.3452,51
0.7676,-0.6391,-0.046,0.0093,7.6312604,-79.368484,174.29436,175.68834,-0.1137,0.3413,51
0.7669,-0.6398,-0.0474,0.0094,7.6012096,-79.467445,174.0953,175.51521,-0.1088,0.3364,51
0.7662,-0.6406,-0.049,0.0097,7.56695,-79.57421,173.89131,175.34528,-0.0766,0.3271,51
0.7654,-0.6414,-0.0507,0.0101,7.543658,-79.68746,173.68411,175.17534,-0.0566,0.3378,51
0.7643,-0.6425,-0.0524,0.0105,7.541653,-79.8482,173.47534,174.99664,-0.0288,0.3388,51
0.7631,-0.6438,-0.0539,0.0108,7.5859017,-80.0345,173.28336,174.8226,-0.0112,0.3276,51
0.7604,-0.6468,-0.0561,0.0112,7.6165247,-80.47021,172.99173,174.53058,0.0156,0.2934,51
0.7589,-0.6485,-0.0565,0.0114,7.664724,-80.72483,172.95012,174.46613,0.0161,0.269,51
0.7574,-0.6503,-0.0566,0.0115,7.7109213,-80.99089,172.94109,174.42303,0.0146,0.2333,51
0.7558,-0.6522,-0.0564,0.0117,7.7537994,-81.277794,172.99004,174.43031,0.0141,0.2075,51
0.7542,-0.6541,-0.056,0.012,7.768022,-81.56828,173.0829,174.47876,0.0029,0.1801,51
0.7527,-0.6558,-0.0557,0.0126,7.694556,-81.8358,173.20137,174.56396,0.0039,0.1533,51
0.75,-0.6588,-0.0557,0.0149,7.6194882,-82.31728,173.49893,174.8331,0.0395,0.1254,51
0.7489,-0.6599,-0.0562,0.0164,7.53663,-82.502235,173.6215,174.96365,0.062,0.1289,51
0.7481,-0.6607,-0.0571,0.0179,7.4357724,-82.63418,173.68515,175.04924,0.0942,0.1323,51
0.7477,-0.6611,-0.0583,0.0194,7.3488607,-82.6983,173.70445,175.10585,0.1196,0.1411,51
0.7475,-0.6611,-0.0596,0.0206,7.237733,-82.70909,173.66756,175.11143,0.1362,0.1396,51
0.7477,-0.6608,-0.0608,0.0218,7.1280203,-82.66554,173.64653,175.14096,0.1367,0.1386,51
0.748,-0.6603,-0.0616,0.0228,6.988461,-82.60047,173.6588,175.19778,0.1259,0.1313,51
0.7484,-0.6598,-0.0617,0.0239,6.8452,-82.53772,173.79143,175.36472,0.0834,0.1225,51
0.7487,-0.6595,-0.0612,0.025,6.6759133,-82.5067,174.01569,175.60693,0.0297,0.0971,51
0.7488,-0.6594,-0.0602,0.0264,6.49289,-82.51599,174.35669,175.9552,-0.0302,0.0664,51
0.749,-0.6592,-0.0593,0.0279,6.327989,-82.50798,174.69542,176.30818,-0.083,0.0439,51
0.7494,-0.6588,-0.059,0.0292,6.144492,-82.45881,174.9145,176.55634,-0.104,0.0312,51
0.7498,-0.6582,-0.0591,0.0307,5.92043,-82.38979,175.09767,176.7839,-0.0927,0.0278,51
0.7502,-0.6576,-0.0591,0.0326,5.6838446,-82.325035,175.34886,177.08519,-0.0732,0.0493,51
0.7507,-0.657,-0.0591,0.0346,5.4234037,-82.25324,175.61241,177.40274,-0.0483,0.0512,51
0.7511,-0.6564,-0.0591,0.0369,5.163698,-82.19095,175.91486,177.764,-0.0522,0.0576,51
0.7514,-0.6559,-0.0591,0.0393,4.900444,-82.14498,176.23035,178.13762,-0.0561,0.0537,51
0.7517,-0.6554,-0.0592,0.0418,4.6402864,-82.09836,176.5429,178.51294,-0.0576,0.0493,51
0.7521,-0.6547,-0.0597,0.0443,4.181593,-82.023506,176.79149,178.83894,-0.0561,0.061,51
0.7528,-0.6534,-0.0613,0.0492,3.9827633,-81.884384,177.18185,179.39424,-0.0419,0.062,51
0.7531,-0.6527,-0.0625,0.0517,3.8108075,-81.81195,177.32103,179.62708,-0.0141,0.0688,51
0.7535,-0.652,-0.0638,0.0541,3.661863,-81.73081,177.43024,179.83302,-0.0004,0.0703,51
0.7539,-0.6512,-0.0651,0.0564,3.5440314,-81.64052,177.52403,180.02539,0.0141,0.0747,51
0.7545,-0.6502,-0.0666,0.0585,3.4455123,-81.51546,177.55664,180.16676,0.0214,0.0747,51
0.7553,-0.649,-0.068,0.0603,3.3709145,-81.35677,177.56015,180.28146,0.0195,0.0688,51
0.7561,-0.6477,-0.0693,0.0619,3.3203564,-81.188705,177.5503,180.38104,0.0209,0.08,51
0.7569,-0.6465,-0.0705,0.0634,3.2820017,-81.02928,177.54268,180.47775,0.0102,0.0805,51
0.7577,-0.6453,-0.0715,0.0647,3.2593658,-80.86967,177.53838,180.5706,0.0126,0.0747,51
0.7585,-0.6442,-0.0724,0.0659,3.2479954,-80.71868,177.5367,180.66025,-0.0029,0.0678,51
0.7592,-0.6432,-0.0732,0.0671,3.2295275,-80.584465,177.55132,180.76035,-0.0073,0.0595,51
0.7597,-0.6423,-0.0737,0.0682,3.2113488,-80.47482,177.60036,180.88002,-0.0141,0.0473,51
0.7602,-0.6416,-0.0741,0.0694,3.1600018,-80.38397,177.67911,181.02438,-0.0278,0.0405,51
0.7605,-0.6409,-0.0743,0.0719,3.15468,-80.31902,177.9531,181.38573,-0.0361,0.0112,51
0.7607,-0.6405,-0.0745,0.0731,3.1530793,-80.277405,178.06714,181.54749,-0.0346,-0.0068,51
0.761,-0.64,-0.0747,0.0743,3.1505861,-80.21963,178.17836,181.71165,-0.0205,-0.0141,51
0.7616,-0.6392,-0.0749,0.0756,3.1475894,-80.1142,178.29414,181.89798,-0.017,-0.0004,51
0.7622,-0.6382,-0.075,0.077,3.1479962,-79.99236,178.43344,182.11438,-0.0009,0.0034,51
0.7629,-0.6372,-0.075,0.0786,3.1327133,-79.86479,178.6103,182.37361,0.0078,0.0136,51
0.7637,-0.6361,-0.0747,0.0803,3.1014514,-79.72261,178.84,182.68681,0.017,0.0107,51
0.7644,-0.6351,-0.0741,0.0819,3.0657258,-79.596245,179.10281,183.01923,0.019,0.0361,51
0.7653,-0.6339,-0.0733,0.0834,2.9830544,-79.43673,179.37561,183.36493,0.0356,0.0585,51
0.7663,-0.6327,-0.0721,0.0842,2.8494792,-79.2656,179.61882,183.65555,0.0551,0.0903,51
0.7675,-0.6315,-0.0706,0.084,2.2998297,-79.07377,179.78094,183.83464,0.0747,0.1254,51
0.7702,-0.6292,-0.0653,0.0799,1.9172097,-78.65915,179.99599,183.92108,0.125,0.208,51
0.7715,-0.6285,-0.061,0.0764,1.6148969,-78.48964,180.18224,183.94055,0.1093,0.2309,51
0.7727,-0.6281,-0.0554,0.0723,1.5919392,-78.35174,180.49544,184.02142,0.0625,0.2255,51
0.7732,-0.6285,-0.0486,0.0679,2.0389822,-78.33321,180.96959,184.18987,0.0151,0.225,51
0.7733,-0.6294,-0.0413,0.0633,2.7342172,-78.38496,181.5044,184.38428,-0.0693,0.2353,51
0.7728,-0.6309,-0.0347,0.0583,3.5150754,-78.53253,181.9011,184.43306,-0.124,0.2192,51
0.7725,-0.632,-0.03,0.0524,4.2713795,-78.63431,181.90015,184.12416,-0.1381,0.2338,51
0.7727,-0.6324,-0.0272,0.046,4.9425306,-78.64342,181.54382,183.515,-0.0893,0.2607,51
0.7735,-0.6318,-0.026,0.0399,5.4883513,-78.52371,180.97375,182.76122,-0.0268,0.2817,51
0.7747,-0.6308,-0.0258,0.0348,5.883248,-78.34038,180.37434,182.03764,0.019,0.2988,51
0.776,-0.6293,-0.0261,0.0312,6.0418816,-78.10624,179.88231,181.47998,0.0488,0.3178,51
0.7769,-0.6282,-0.0268,0.0297,5.9242644,-77.93957,179.58987,181.18289,0.04,0.3051,51
0.7774,-0.6275,-0.028,0.0306,5.5204988,-77.84211,179.51427,181.17752,0.0375,0.291,51
0.7771,-0.6276,-0.0299,0.0337,4.866642,-77.87846,179.60506,181.40642,0.0429,0.2612,51
0.7761,-0.6285,-0.0326,0.0386,4.070011,-78.04108,179.80247,181.798,0.06,0.2187,51
0.7745,-0.6298,-0.036,0.0444,3.2746062,-78.285736,180.01544,182.23285,0.0883,0.1699,51
0.773,-0.6311,-0.0399,0.0501,2.693038,-78.524284,180.14807,182.59053,0.1445,0.1406,51
0.772,-0.6317,-0.0436,0.0543,2.3326197,-78.66138,180.12285,182.75508,0.2973,0.1992,51
0.7716,-0.6316,-0.0471,0.0572,2.2426674,-78.68918,179.95888,182.75832,0.2695,0.164,51
0.772,-0.6309,-0.0496,0.0585,2.3728673,-78.60046,179.73549,182.65526,0.3105,0.2031,51
0.7728,-0.6298,-0.0509,0.0581,2.6684825,-78.44139,179.47643,182.4532,0.3447,0.2563,51
0.774,-0.6285,-0.0508,0.0561,3.0598285,-78.23056,179.2274,182.18881,0.3061,0.2465,51
0.7754,-0.6272,-0.0495,0.0531,3.3929317,-78.003174,179.03673,181.92216,0.2421,0.2836,51
0.776,-0.6268,-0.047,0.0501,3.7580428,-77.91646,179.03935,181.7855,0.1811,0.3066,51
0.7764,-0.6269,-0.0436,0.0469,4.213299,-77.89005,179.15726,181.72061,0.1337,0.2919,51
0.7769,-0.6268,-0.0397,0.0434,5.141141,-77.838715,179.31111,181.67259,0.0649,0.247,51
0.7775,-0.6269,-0.032,0.0369,5.601489,-77.793655,179.6695,181.63284,-0.018,0.2558,51
0.7777,-0.627,-0.0283,0.0339,6.0292544,-77.78343,179.85748,181.6309,-0.0634,0.2324,51
0.778,-0.6269,-0.0249,0.0313,6.429555,-77.74887,180.04721,181.65314,-0.103,0.2358,51
0.7784,-0.6265,-0.022,0.0289,6.7702074,-77.68059,180.18527,181.64636,-0.1391,0.2255,51
0.779,-0.626,-0.0197,0.0269,7.0690336,-77.58968,180.2816,181.62714,-0.1577,0.2246,51
0.7798,-0.6251,-0.0181,0.0251,7.2871914,-77.44925,180.2966,181.55537,-0.1806,0.228,51
0.7808,-0.624,-0.0173,0.0238,7.428595,-77.27755,180.25226,181.46303,-0.185,0.2343,51
0.7818,-0.6228,-0.0173,0.0229,7.5087857,-77.09757,180.13805,181.33582,-0.164,0.2749,51
0.7827,-0.6217,-0.0177,0.0224,7.5256424,-76.93412,180.0135,181.22047,-0.1611,0.2934,51
0.7834,-0.6207,-0.0185,0.0223,7.5152836,-76.79422,179.87848,181.1172,-0.1264,0.3193,51
0.7838,-0.6201,-0.0193,0.0223,7.4852047,-76.711586,179.75787,181.02727,-0.0971,0.3437,51
0.784,-0.62,-0.0199,0.0224,7.4549994,-76.68823,179.68079,180.97319,-0.0659,0.3452,51
0.7839,-0.6201,-0.0202,0.0225,7.453773,-76.704315,179.64923,180.95258,-0.0463,0.3374,51
0.7838,-0.6202,-0.0201,0.0225,7.480201,-76.720474,179.66455,180.9636,-0.02,0.353,51
0.7836,-0.6204,-0.0197,0.0223,7.549637,-76.75256,179.70126,180.97957,-0.0249,0.3491,51
0.7836,-0.6205,-0.019,0.0219,7.6422243,-76.76125,179.75768,181.0018,-0.0219,0.3413,51
0.7836,-0.6205,-0.0181,0.0214,7.7371774,-76.76085,179.83133,181.03293,-0.0341,0.3432,51
0.7837,-0.6204,-0.0171,0.021,7.794298,-76.744446,179.93048,181.0907,-0.0454,0.3403,51
0.7838,-0.6204,-0.0159,0.0211,7.79903,-76.73746,180.11705,181.2443,-0.0649,0.3271,51
0.7836,-0.6206,-0.0146,0.0217,7.7302923,-76.769745,180.37788,181.48181,-0.0771,0.3139,51
0.7831,-0.6212,-0.0132,0.023,7.574045,-76.85878,180.73758,181.8327,-0.0781,0.2797,51
0.7821,-0.6224,-0.0117,0.0251,7.378359,-77.03578,181.2111,182.31255,-0.0971,0.249,51
0.7808,-0.6239,-0.0105,0.0274,7.177183,-77.2597,181.67003,182.78888,-0.1088,0.2314,51
0.7797,-0.6253,-0.0098,0.0296,7.0313206,-77.4602,182.04535,183.19386,-0.0986,0.2348,51
0.7788,-0.6263,-0.0097,0.0309,6.9487295,-77.61259,182.22527,183.3973,-0.0957,0.2607,51
0.7781,-0.6271,-0.0097,0.0315,7.0120354,-77.73373,182.30615,183.48611,-0.0126,0.3334,51
0.7776,-0.6278,-0.0085,0.0315,7.112179,-77.82768,182.49066,183.62907,-0.0136,0.332,51
0.7764,-0.6293,-0.0063,0.0317,7.2330947,-78.03835,182.85707,183.92325,-0.0458,0.2998,51
0.7746,-0.6315,-0.0036,0.0321,7.3528686,-78.35023,183.33223,184.31244,-0.0903,0.2255,51
0.7727,-0.6338,-0.0012,0.0325,7.4031343,-78.67764,183.76736,184.67119,-0.1425,0.1728,51
0.771,-0.6359,-0.0001,0.0327,7.35641,-78.979866,183.98483,184.84496,-0.1728,0.1337,51
0.7696,-0.6376,-0.0006,0.0326,7.2438507,-79.235565,183.92358,184.77727,-0.143,0.1225,51
0.7688,-0.6385,-0.002,0.0325,7.0631104,-79.38208,183.71713,184.59413,-0.08,0.1176,51
0.7682,-0.6392,-0.0037,0.033,6.8531094,-79.49598,183.53638,184.46097,-0.0473,0.1303,51
0.7676,-0.6399,-0.0052,0.0341,6.6140714,-79.60712,183.45958,184.44107,-0.0395,0.1289,51
0.7669,-0.6406,-0.0062,0.0361,6.3251023,-79.72098,183.57028,184.61748,-0.0673,0.1035,51
0.766,-0.6415,-0.0073,0.0387,5.977718,-79.866455,183.74548,184.87148,-0.1132,0.0942,51
0.7651,-0.6424,-0.0089,0.0416,5.579129,-80.014366,183.88539,185.10728,-0.143,0.081,51
0.7644,-0.6431,-0.0114,0.0442,5.138684,-80.136215,183.85126,185.18356,-0.1313,0.0913,51
0.7639,-0.6434,-0.0148,0.0463,4.711634,-80.214165,183.61519,185.07027,-0.0874,0.1093,51
0.7636,-0.6435,-0.0185,0.0479,4.3712225,-80.26109,183.26765,184.84291,-0.0083,0.1391,51
0.7634,-0.6436,-0.0218,0.0489,4.140137,-80.29784,182.90346,184.57526,0.059,0.1694,51
0.763,-0.6439,-0.0243,0.0495,4.014021,-80.3626,182.61278,184.34784,0.083,0.186,51
0.7625,-0.6444,-0.0259,0.0498,3.9620457,-80.44852,182.4219,184.18796,0.0761,0.1811,51
0.7618,-0.6452,-0.0268,0.05,3.92169,-80.573074,182.32826,184.09999,0.0439,0.1713,51
0.7609,-0.6462,-0.0275,0.0504,3.8571777,-80.7294,182.29419,184.06602,-0.0122,0.145,51
0.76,-0.6472,-0.0283,0.0511,3.7617385,-80.88614,182.28357,184.06372,-0.0576,0.1235,51
0.759,-0.6482,-0.0295,0.052,3.6107576,-81.05147,182.2401,184.03938,-0.0771,0.1079,51
0.7581,-0.6491,-0.0313,0.0532,3.4229689,-81.2022,182.1433,183.98218,-0.0781,0.0996,51
0.7573,-0.6498,-0.0337,0.0545,3.2048805,-81.32915,181.96635,183.86212,-0.0581,0.0874,51
0.7566,-0.6503,-0.0366,0.056,2.98062,-81.431755,181.73695,183.70709,-0.0458,0.0786,51
0.7561,-0.6506,-0.0396,0.0577,2.5946913,-81.50176,181.51408,183.56963,-0.04,0.0732,51
0.7553,-0.6507,-0.0461,0.0613,2.4539046,-81.58182,181.01143,183.26166,-0.0249,0.0673,51
0.7551,-0.6505,-0.0492,0.0632,2.3634355,-81.584366,180.79045,183.14473,-0.0253,0.0644,51
0.7551,-0.6502,-0.0522,0.065,2.32109,-81.56236,180.56792,183.0278,-0.0258,0.0664,51
0.755,-0.6498,-0.0549,0.0669,2.3333693,-81.53949,180.40334,182.96602,-0.02,0.0751,51
0.7549,-0.6496,-0.0572,0.0688,2.3856604,-81.534424,180.30156,182.95438,-0.0244,0.062,51
0.7547,-0.6495,-0.0591,0.0706,2.4422696,-81.54576,180.24968,182.97804,-0.0195,0.0659,51
0.7544,-0.6495,-0.0603,0.0722,2.5310237,-81.57372,180.28004,183.06091,-0.0229,0.061,51
0.7538,-0.65,-0.0609,0.0736,2.5868087,-81.667755,180.38626,183.18387,-0.02,0.0517,51
0.7533,-0.6504,-0.061,0.0746,2.6242368,-81.744606,180.51364,183.3137,-0.017,0.0493,51
0.7529,-0.6509,-0.0607,0.0751,2.4885457,-81.820786,180.63681,183.42003,-0.0312,0.0415,51
0.7535,-0.6504,-0.0596,0.074,2.3739648,-81.72892,180.64388,183.4078,-0.0327,0.0659,51
0.7544,-0.6496,-0.0594,0.0731,2.2512612,-81.58825,180.53346,183.31296,-0.04,0.0942,51
0.7553,-0.6486,-0.0592,0.0723,2.1299024,-81.43072,180.43391,183.23557,-0.0458,0.083,51
0.7561,-0.6476,-0.059,0.072,2.0222955,-81.283,180.40071,183.23283,-0.0551,0.0913,51
0.7568,-0.6469,-0.0588,0.0723,1.9332371,-81.17158,180.45026,183.31607,-0.061,0.0825,51
0.7572,-0.6463,-0.0586,0.0729,1.8541925,-81.09254,180.54324,183.4413,-0.0683,0.0786,51
0.7577,-0.6457,-0.0586,0.0736,1.7750409,-81.00616,180.61737,183.55612,-0.0468,0.0742,51
0.7582,-0.645,-0.0586,0.0742,1.6896532,-80.91057,180.67693,183.65694,-0.0371,0.0742,51
0.7589,-0.6442,-0.0586,0.0743,1.5818766,-80.789185,180.66858,183.68475,-0.0097,0.0898,51
0.7598,-0.6432,-0.0584,0.0737,1.4438312,-80.63261,180.59613,183.63646,0.0312,0.1118,51
0.761,-0.642,-0.0578,0.0725,1.2845166,-80.434105,180.50183,183.55289,0.0673,0.1181,51
0.7624,-0.6406,-0.0565,0.0708,1.1236793,-80.201904,180.44542,183.48581,0.0732,0.1176,51
0.7638,-0.6393,-0.0543,0.0692,1.0133296,-79.97967,180.53873,183.54427,0.0659,0.1337,51
0.7651,-0.6382,-0.0513,0.0679,1.320851,-79.78342,180.79323,183.74245,0.0498,0.1279,51
0.7671,-0.6366,-0.0433,0.0654,1.7512137,-79.48236,181.6274,184.38562,0.0034,0.1713,51
0.7677,-0.6363,-0.039,0.0636,2.3065596,-79.40017,182.0329,184.65376,0.0224,0.2221,51
0.7686,-0.6358,-0.035,0.0607,2.9260569,-79.27615,182.25365,184.7208,0.0551,0.2705,51
0.7695,-0.6352,-0.0314,0.0568,3.5769932,-79.14357,182.29343,184.58849,0.1142,0.309,51
0.7706,-0.6344,-0.0278,0.0526,4.2103963,-78.9793,182.29439,184.41061,0.1616,0.3452,51
0.7717,-0.6335,-0.024,0.0488,4.7718897,-78.80646,182.37505,184.31462,0.1601,0.3383,51
0.7726,-0.6328,-0.0202,0.0458,5.1467624,-78.666176,182.55838,184.33408,0.1054,0.3193,51
0.7728,-0.6327,-0.0169,0.0444,5.3178062,-78.63056,182.87408,184.5275,0.0141,0.3032,51
0.7726,-0.633,-0.0145,0.0446,5.2765455,-78.66046,183.25742,184.8484,-0.0576,0.2607,51
0.7722,-0.6335,-0.0135,0.0461,5.008199,-78.726326,183.59494,185.19241,-0.0874,0.2402,51
0.7717,-0.6339,-0.0142,0.0488,4.0824184,-78.79721,183.82712,185.50824,-0.0639,0.2265,51
0.7712,-0.6337,-0.0189,0.0561,3.5871837,-78.830826,184.01836,186.01904,0.0581,0.2045,51
0.7711,-0.6334,-0.0217,0.0599,3.1272027,-78.82248,184.06099,186.24156,0.1035,0.1787,51
0.7711,-0.633,-0.0245,0.0634,2.763823,-78.79912,184.06427,186.41971,0.125,0.1704,51
0.7712,-0.6325,-0.0269,0.0662,2.4840999,-78.7586,184.03899,186.5433,0.1264,0.1665,51
0.7714,-0.6319,-0.029,0.0683,2.310474,-78.70116,183.97049,186.60042,0.1044,0.1826,51
0.7718,-0.6312,-0.0306,0.0696,2.2195745,-78.61811,183.87494,186.6004,0.081,0.1899,51
0.7722,-0.6305,-0.0317,0.0703,2.2051034,-78.532616,183.78104,186.57301,0.0834,0.1992,51
0.7726,-0.63,-0.0322,0.0704,2.2487967,-78.4618,183.70648,186.52887,0.0688,0.2114,51
0.773,-0.6296,-0.0322,0.0701,2.3673913,-78.39732,183.65924,186.48572,0.0708,0.2255,51
0.7733,-0.6294,-0.0314,0.0694,2.546494,-78.353745,183.68634,186.47928,0.0712,0.227,51
0.7734,-0.6295,-0.0299,0.0683,2.8000846,-78.347755,183.77585,186.49716,0.0649,0.2358,51
0.7734,-0.6296,-0.0278,0.0668,3.1129537,-78.345856,183.90753,186.52881,0.0371,0.2343,51
0.7735,-0.6298,-0.0254,0.0648,3.7897458,-78.34427,184.02362,186.52196,-0.0009,0.2285,51
0.7739,-0.63,-0.0206,0.0605,4.106958,-78.30941,184.21461,186.46371,-0.0874,0.2167,51
0.7742,-0.6299,-0.0185,0.0585,4.3558,-78.26881,184.2802,186.42049,-0.1088,0.2236,51
0.7745,-0.6297,-0.017,0.0568,4.536659,-78.2228,184.29234,186.3493,-0.1357,0.2299,51
0.7747,-0.6295,-0.0161,0.0553,4.641661,-78.18773,184.24167,186.23586,-0.1538,0.2304,51
0.7749,-0.6295,-0.0156,0.0544,4.6739826,-78.17188,184.20561,186.16212,-0.1523,0.229,51
0.7748,-0.6296,-0.0156,0.0538,4.643662,-78.18925,184.1368,186.07393,-0.1474,0.2338,51
0.7747,-0.6298,-0.016,0.0536,4.5609217,-78.21721,184.05763,185.99632,-0.1308,0.2387,51
0.7744,-0.6301,-0.0167,0.0537,4.4855323,-78.26974,183.97366,185.92749,-0.1035,0.2524,51
0.7741,-0.6305,-0.0173,0.0538,4.384069,-78.33047,183.9054,185.87016,-0.0805,0.2568,51
0.7737,-0.6309,-0.0181,0.054,4.296959,-78.399376,183.8209,185.80373,-0.0605,0.2592,51
0.7733,-0.6314,-0.0188,0.0541,4.238042,-78.47666,183.7402,185.73396,-0.041,0.2778,51
0.7728,-0.6319,-0.0194,0.0539,4.218032,-78.560974,183.63956,185.63208,-0.0058,0.3061,51
0.7725,-0.6323,-0.0198,0.0535,4.2489557,-78.62093,183.54057,185.52414,0.0122,0.3125,51
0.7723,-0.6327,-0.0199,0.0528,4.3069725,-78.6723,183.44832,185.40771,0.02,0.3095,51
0.772,-0.633,-0.0197,0.0521,4.3590565,-78.7205,183.40036,185.32846,0.017,0.31,51
0.7717,-0.6335,-0.0193,0.0517,4.416534,-78.78509,183.41994,185.31725,-0.0019,0.2998,51
0.7712,-0.634,-0.0184,0.0518,4.431582,-78.861,183.57625,185.44206,-0.0146,0.2607,51
0.7704,-0.635,-0.0173,0.0527,4.438278,-79.00043,183.86824,185.71014,-0.0371,0.2412,51
0.7692,-0.6364,-0.016,0.0541,4.4243784,-79.20137,184.26143,186.07913,-0.0537,0.2124,51
0.768,-0.6377,-0.015,0.0557,4.4020977,-79.39375,184.63579,186.44322,-0.0747,0.2099,51
0.7672,-0.6386,-0.0145,0.0569,4.4107594,-79.52519,184.87862,186.68605,-0.0639,0.2216,51
0.7668,-0.6391,-0.0142,0.0573,4.4778237,-79.59531,184.98387,186.78406,-0.0332,0.2631,51
0.7667,-0.6392,-0.0137,0.057,4.642235,-79.60851,185.02391,186.80199,0.0009,0.2963,51
0.7666,-0.6394,-0.0124,0.0564,4.9307575,-79.62524,185.1469,186.87462,0.0097,0.3037,51
0.7661,-0.6401,-0.0099,0.0558,5.300926,-79.70539,185.45976,187.09889,-0.017,0.3027,51
0.765,-0.6415,-0.0066,0.0554,5.706765,-79.88209,185.93373,187.45839,-0.0708,0.2495,51
0.7636,-0.6432,-0.003,0.0552,6.260715,-80.10078,186.48653,187.89189,-0.1386,0.1787,51
0.7611,-0.6463,0.0011,0.0539,6.29618,-80.520294,187.01279,188.2416,-0.2226,0.0971,51
0.7607,-0.6468,0.0008,0.0528,6.2266803,-80.60269,186.84221,188.043,-0.1943,0.0917,51
0.7608,-0.6467,-0.0002,0.0521,6.1059585,-80.60062,186.60197,187.80957,-0.1596,0.0986,51
0.7612,-0.6464,-0.0013,0.0521,5.970033,-80.55591,186.4277,187.6655,-0.1367,0.1137,51
0.7613,-0.6462,-0.0022,0.0529,5.781964,-80.53613,186.39005,187.66994,-0.1474,0.1,51
0.7611,-0.6462,-0.0033,0.0545,5.5200543,-80.55429,186.43018,187.77162,-0.1772,0.0654,51
0.761,-0.6462,-0.005,0.0564,5.144214,-80.569756,186.41666,187.8408,-0.1821,0.0566,51
0.7612,-0.6457,-0.0077,0.0583,4.699302,-80.52903,186.24281,187.78047,-0.1411,0.0747,51
0.7618,-0.6449,-0.0111,0.0599,4.2802687,-80.43959,185.91608,187.5841,-0.0717,0.1254,51
0.7625,-0.6438,-0.0144,0.061,3.948594,-80.315956,185.53636,187.3275,0.0029,0.1738,51
0.7633,-0.6428,-0.0171,0.0616,3.718707,-80.18878,185.18338,187.07335,0.0439,0.2026,51
0.764,-0.6419,-0.0191,0.0617,3.5973618,-80.07258,184.87576,186.83498,0.0737,0.2148,51
0.7644,-0.6414,-0.0203,0.0615,3.5393841,-80.00785,184.66003,186.65381,0.061,0.2094,51
0.7646,-0.6412,-0.021,0.0612,3.4951828,-79.98073,184.51324,186.5208,0.0195,0.1948,51
0.7646,-0.6411,-0.0216,0.0609,3.4127483,-79.97628,184.38571,186.40105,-0.018,0.1669,51
0.7646,-0.6411,-0.0225,0.0608,3.0172257,-79.98199,184.23949,186.27303,-0.0571,0.1538,51
0.7646,-0.6408,-0.026,0.0617,2.6924644,-79.9744,183.82681,185.96901,-0.0849,0.1088,51
0.7648,-0.6404,-0.0287,0.0627,2.3071249,-79.93747,183.54128,185.78069,-0.0664,0.0908,51
0.7651,-0.6399,-0.032,0.0638,1.8768725,-79.88596,183.17622,185.53308,-0.0522,0.0776,51
0.7654,-0.6391,-0.0356,0.0652,1.4442782,-79.8078,182.79993,185.2958,-0.0385,0.0756,51
0.7659,-0.6382,-0.0394,0.0666,1.0587221,-79.705086,182.38976,185.03587,-0.0341,0.0747,51
0.7665,-0.6371,-0.0431,0.068,0.7723489,-79.57538,181.99046,184.79236,-0.0302,0.0776,51
0.7671,-0.6359,-0.0467,0.0695,0.69160724,-79.43531,181.61685,184.57967,-0.0385,0.0615,51
0.7676,-0.6349,-0.0499,0.071,0.99847794,-79.31843,181.30632,184.41689,-0.0283,0.0629,51
0.7682,-0.6334,-0.0551,0.074,1.1824685,-79.15516,180.87418,184.23781,-0.0239,0.0561,51
0.7683,-0.6329,-0.0569,0.0753,1.299112,-79.10886,180.75778,184.21494,-0.0278,0.0571,51
0.7684,-0.6326,-0.0579,0.0763,1.3657298,-79.07898,180.72586,184.24396,-0.0185,0.0541,51
0.7685,-0.6324,-0.0584,0.0769,1.370597,-79.05638,180.7206,184.27405,-0.0083,0.0537,51
0.7686,-0.6322,-0.0583,0.0772,1.3261476,-79.03259,180.76747,184.33334,-0.0146,0.0527,51
0.7689,-0.632,-0.0577,0.0769,1.1820031,-78.991745,180.81276,184.36578,-0.0141,0.0664,51
0.7699,-0.6312,-0.0552,0.0751,1.1731541,-78.84046,180.93922,184.41713,-0.0371,0.0908,51
0.7706,-0.6306,-0.0537,0.0736,1.2502713,-78.73028,180.96202,184.38652,-0.0566,0.0922,51
0.7715,-0.6298,-0.0522,0.0721,1.3954059,-78.58789,180.98026,184.35774,-0.0776,0.1059,51
0.7725,-0.6289,-0.0509,0.0707,1.5270444,-78.42991,180.97934,184.31984,-0.0859,0.1074,51
0.7733,-0.6281,-0.0497,0.0698,1.610855,-78.29702,181.02798,184.34137,-0.1044,0.1157,51
0.7739,-0.6275,-0.0486,0.0696,1.6548316,-78.19844,181.15057,184.45099,-0.1118,0.1113,51
0.7743,-0.627,-0.0478,0.07,1.6322123,-78.124985,181.30397,184.61115,-0.1186,0.1147,51
0.7744,-0.6268,-0.0472,0.0711,1.6253518,-78.10167,181.5184,184.84691,-0.1093,0.1274,51
0.7745,-0.6265,-0.0469,0.0723,1.6231897,-78.06986,181.699,185.0622,-0.0869,0.145,51
0.7746,-0.6263,-0.0468,0.0734,1.6714141,-78.046936,181.83952,185.23784,-0.0595,0.1562,51
0.7749,-0.6259,-0.0469,0.0738,1.7848097,-77.99067,181.86241,185.28839,-0.0239,0.1811,51
0.7755,-0.6252,-0.0472,0.0732,1.9832944,-77.88435,181.73001,185.17093,0.0214,0.1894,51
0.7765,-0.6241,-0.0476,0.0718,2.2155097,-77.71172,181.47897,184.9284,0.0781,0.2036,51
0.7776,-0.6229,-0.0475,0.0701,2.4382513,-77.521,181.26495,184.70285,0.0961,0.2094,51
0.7787,-0.6218,-0.0467,0.0687,2.597041,-77.33879,181.19115,184.60312,0.0961,0.2216,51
0.7794,-0.6211,-0.045,0.0678,2.6848462,-77.22085,181.31754,184.67775,0.0664,0.2026,51
0.7797,-0.621,-0.0428,0.0674,2.766551,-77.18497,181.58727,184.8781,0.0239,0.184,51
0.7797,-0.6211,-0.0405,0.0669,2.9095752,-77.18722,181.86609,185.07372,0.0073,0.186,51
0.78,-0.621,-0.0384,0.0661,3.376758,-77.149475,182.07481,185.20326,0.0131,0.2011,51
0.7814,-0.6197,-0.0353,0.063,3.6904228,-76.919525,182.13617,185.11957,0.1035,0.2773,51
0.7824,-0.6187,-0.0332,0.0614,4.04153,-76.74992,182.23463,185.1349,0.1523,0.3168,51
0.7833,-0.6179,-0.0301,0.0599,4.379013,-76.60158,182.49419,185.27783,0.1665,0.3374,51
0.7836,-0.6178,-0.026,0.0587,4.688779,-76.55346,182.94846,185.5759,0.143,0.3447,51
0.7834,-0.6183,-0.0218,0.0576,4.9924655,-76.59195,183.44135,185.89888,0.0937,0.3281,51
0.783,-0.619,-0.0179,0.0564,5.2554483,-76.66213,183.88397,186.17393,0.0546,0.3286,51
0.7827,-0.6196,-0.0149,0.0552,5.4702907,-76.72033,184.19334,186.34592,0.0268,0.3286,51
0.7827,-0.6198,-0.0129,0.0541,5.6158276,-76.72714,184.36049,186.41652,0.0073,0.3413,51
0.7829,-0.6196,-0.0118,0.0534,5.676599,-76.68894,184.43575,186.4409,0.0131,0.3242,51
0.783,-0.6195,-0.0113,0.0532,5.6598916,-76.66978,184.48328,186.46913,0.0185,0.3164,51
0.783,-0.6194,-0.0113,0.0536,5.575928,-76.65969,184.528,186.52768,0.0004,0.2822,51
0.7829,-0.6196,-0.0116,0.0545,5.4508896,-76.6845,184.59059,186.6245,-0.02,0.2626,51
0.7826,-0.6198,-0.0123,0.0554,5.278561,-76.726524,184.59789,186.67632,-0.0463,0.2314,51
0.7824,-0.6199,-0.0136,0.0564,5.0874476,-76.756645,184.52701,186.67268,-0.0756,0.2055,51
0.7824,-0.6198,-0.0154,0.0573,4.8880177,-76.75832,184.3671,186.59563,-0.0859,0.1982,51
0.7827,-0.6194,-0.0178,0.058,4.7080474,-76.71584,184.08965,186.41916,-0.0844,0.1884,51
0.7831,-0.6187,-0.0204,0.0586,4.5554447,-76.639824,183.76718,186.20622,-0.0673,0.1958,51
0.7835,-0.618,-0.0229,0.0591,4.433451,-76.56227,183.44797,185.99135,-0.0458,0.2133,51
0.7838,-0.6175,-0.025,0.0595,4.358307,-76.5068,183.1791,185.80849,-0.0195,0.2211,51
0.7841,-0.6171,-0.0266,0.0597,4.3194795,-76.45729,182.9613,185.65422,-0.0043,0.2314,51
0.7842,-0.6169,-0.0275,0.0597,4.332794,-76.43639,182.82718,185.55135,0.0029,0.2373,51
0.7843,-0.6168,-0.0278,0.0593,4.353037,-76.42172,182.73582,185.45883,0.0019,0.2309,51
0.7843,-0.6169,-0.0277,0.0589,4.4245195,-76.43037,182.70598,185.41158,0.0043,0.2333,51
0.7842,-0.617,-0.0272,0.0579,4.5456886,-76.444466,182.66711,185.32324,0.0097,0.2416,51
0.7842,-0.6172,-0.0262,0.0566,4.8834987,-76.45843,182.66653,185.24797,0.0004,0.2412,51
0.7842,-0.6176,-0.0234,0.0535,5.379041,-76.48337,182.72433,185.11684,-0.0278,0.2421,51
0.7837,-0.6187,-0.0187,0.0495,5.774962,-76.59932,182.96718,185.073,-0.0795,0.2729,51
0.7833,-0.6195,-0.015,0.0468,5.875524,-76.684654,183.20811,185.10576,-0.0971,0.3183,51
0.7832,-0.6197,-0.0143,0.0459,5.972806,-76.707466,183.20963,185.05527,-0.0854,0.3295,51
0.7832,-0.6199,-0.0138,0.0449,5.004486,-76.72439,183.16933,184.96664,-0.0756,0.3427,51
0.7781,-0.6258,-0.0156,0.0516,4.630689,-77.61673,183.79625,185.74431,-0.0825,0.226,51
0.7766,-0.6274,-0.0169,0.0543,4.281238,-77.87046,183.95833,185.98936,-0.0507,0.2275,51
0.7755,-0.6284,-0.0188,0.0563,4.0000696,-78.04709,183.94083,186.0589,-0.0126,0.2578,51
0.7749,-0.629,-0.0207,0.0576,3.8202457,-78.1532,183.83038,186.02324,0.0556,0.2929,51
0.7744,-0.6295,-0.022,0.0582,3.757427,-78.24055,183.7229,185.95564,0.0942,0.3193,51
0.7739,-0.6301,-0.0221,0.0586,3.8022473,-78.3302,183.7693,186.00221,0.0917,0.3203,51
0.7729,-0.6313,-0.0209,0.0588,3.9428701,-78.50208,183.9972,186.17632,0.0581,0.3076,51
0.7716,-0.633,-0.0187,0.059,4.150983,-78.73316,184.38332,186.47318,0.0131,0.2543,51
0.7701,-0.6348,-0.0161,0.0591,4.627391,-78.98356,184.82211,186.80833,-0.0566,0.1977,51
0.7664,-0.6397,-0.0124,0.0567,4.5841684,-79.66544,185.19019,186.91997,-0.0888,0.0981,51
0.7668,-0.6392,-0.0132,0.056,4.52497,-79.6002,184.97382,186.71466,-0.0761,0.1118,51
0.7675,-0.6383,-0.0139,0.0558,4.217266,-79.475235,184.82503,186.59578,-0.082,0.1098,51
0.7687,-0.6368,-0.0162,0.0573,3.9521258,-79.267654,184.63289,186.53125,-0.1044,0.1147,51
0.7692,-0.636,-0.0182,0.0586,3.6257093,-79.17123,184.47856,186.47757,-0.0996,0.1289,51
0.7698,-0.635,-0.0209,0.0599,3.314773,-79.05405,184.21664,186.33914,-0.06,0.1635,51
0.7707,-0.6338,-0.0238,0.0609,3.0771654,-78.89808,183.88205,186.13309,0.0039,0.2006,51
0.7715,-0.6325,-0.0263,0.0616,2.9438987,-78.73754,183.57076,185.93472,0.059,0.228,51
0.7723,-0.6315,-0.0282,0.0617,2.9018676,-78.60002,183.27974,185.72107,0.0786,0.2358,51
0.7728,-0.6309,-0.0292,0.0615,2.9137993,-78.51506,183.09465,185.57214,0.082,0.2416,51
0.773,-0.6307,-0.0296,0.061,2.9627879,-78.48457,182.97098,185.45049,0.0659,0.2216,51
0.773,-0.6307,-0.0295,0.0604,2.9980335,-78.48418,182.91397,185.37396,0.0273,0.2104,51
0.7729,-0.6309,-0.0293,0.06,2.9925437,-78.50838,182.89919,185.33821,-0.0209,0.1889,51
0.7727,-0.6311,-0.0294,0.0598,2.1747596,-78.54108,182.8654,185.29587,-0.0522,0.1694,51
0.7739,-0.6288,-0.0389,0.0638,1.9526817,-78.28383,181.90262,184.75215,-0.0649,0.0805,51
0.7743,-0.6279,-0.042,0.0659,1.7959787,-78.18546,181.68076,184.69583,-0.0468,0.0825,51
0.7746,-0.627,-0.0451,0.0682,1.7623944,-78.094475,181.48323,184.67024,-0.039,0.08,51
0.775,-0.626,-0.0482,0.0705,1.8367751,-77.98721,181.28249,184.64694,-0.0224,0.0732,51
0.7754,-0.625,-0.0509,0.0728,1.9973359,-77.8793,181.13959,184.67276,0.0019,0.0629,51
0.7759,-0.624,-0.0533,0.0749,2.1902215,-77.763306,181.01497,184.70628,0.0175,0.0722,51
0.7764,-0.623,-0.0552,0.0767,2.4903667,-77.645905,180.9275,184.75618,0.0273,0.0776,51
0.7772,-0.6215,-0.0573,0.0791,2.5757234,-77.46469,180.86877,184.87726,0.0546,0.0898,51
0.7776,-0.6209,-0.0574,0.0795,2.6077702,-77.3838,180.8866,184.93144,0.0498,0.0966,51
0.778,-0.6205,-0.0569,0.0794,2.637668,-77.3184,180.93672,184.98085,0.04,0.1079,51
0.779,-0.6196,-0.0547,0.0777,2.6751938,-77.157684,181.03423,185.00192,0.0161,0.1191,51
0.7797,-0.6191,-0.0532,0.0762,2.7603576,-77.05595,181.06335,184.96452,-0.0151,0.1196,51
0.7805,-0.6184,-0.0516,0.0747,2.8789508,-76.92906,181.10358,184.94023,-0.0419,0.1284,51
0.7813,-0.6176,-0.0501,0.0733,3.0180557,-76.79372,181.14009,184.919,-0.0732,0.1181,51
0.7822,-0.6168,-0.0488,0.0723,3.1078043,-76.652695,181.19278,184.93219,-0.0898,0.1054,51
0.7827,-0.6162,-0.0477,0.0721,3.1755078,-76.56044,181.31558,185.0359,-0.0961,0.0854,51
0.7831,-0.6157,-0.0471,0.0725,3.3344305,-76.486565,181.43657,185.1679,-0.0922,0.0932,51
0.7839,-0.6143,-0.0469,0.0757,3.4328449,-76.30958,181.79893,185.6684,-0.0117,0.1401,51
0.7844,-0.6136,-0.047,0.0764,3.554588,-76.21257,181.84702,185.76448,0.0195,0.1694,51
0.7851,-0.6128,-0.0469,0.0763,3.6628425,-76.09024,181.82965,185.768,0.0546,0.1972,51
0.7857,-0.6121,-0.0463,0.0755,3.7665784,-75.9812,181.8089,185.72604,0.0805,0.2319,51
0.7863,-0.6116,-0.0448,0.0743,3.8419907,-75.88674,181.87646,185.72641,0.0961,0.2729,51
0.7866,-0.6116,-0.0421,0.0727,3.9382658,-75.85399,182.08353,185.80067,0.0629,0.2998,51
0.7867,-0.612,-0.0385,0.0705,4.023972,-75.86711,182.36142,185.88719,0.0166,0.3149,51
0.7862,-0.6131,-0.0344,0.068,4.1526904,-75.98308,182.69447,185.98434,-0.0268,0.3134,51
0.7855,-0.6145,-0.0304,0.0653,4.310963,-76.14012,182.99612,186.04213,-0.0625,0.3032,51
0.7849,-0.6158,-0.0277,0.062,4.5423055,-76.28769,183.03784,185.86646,-0.0727,0.3144,51
0.7848,-0.6164,-0.0264,0.0579,4.7900558,-76.34428,182.76973,185.4164,-0.0263,0.3305,51
0.7851,-0.6164,-0.0264,0.0538,5.053533,-76.32353,182.3008,184.81894,0.0361,0.3447,51
0.7858,-0.6158,-0.0273,0.05,5.3161097,-76.22163,181.72575,184.1647,0.0766,0.3369,51
0.7874,-0.6138,-0.0306,0.0468,5.21136,-75.93182,180.85297,183.33345,0.0839,0.2861,51
0.7878,-0.613,-0.0328,0.048,4.9225636,-75.8362,180.65932,183.26303,0.0659,0.2519,51
0.7878,-0.6127,-0.0355,0.0511,4.461244,-75.81804,180.61447,183.40894,0.0507,0.2172,51
0.787,-0.6131,-0.0387,0.0557,3.9213521,-75.92398,180.6798,183.71014,0.0546,0.1787,51
0.7857,-0.614,-0.0424,0.0613,3.4625185,-76.11462,180.79787,184.0942,0.0693,0.1396,51
0.7843,-0.6149,-0.0465,0.0671,3.2368689,-76.31515,180.88579,184.45929,0.1147,0.1113,51
0.7832,-0.6153,-0.0507,0.0723,3.2556794,-76.44967,180.88503,184.72809,0.1733,0.102,51
0.7827,-0.6152,-0.0544,0.0763,3.400463,-76.49352,180.80801,184.88412,0.2338,0.125,51
0.7827,-0.6146,-0.0569,0.0787,3.532831,-76.45062,180.70985,184.9515,0.2866,0.1625,51
0.7831,-0.6139,-0.0579,0.0795,3.5607748,-76.3631,180.6406,184.96112,0.3129,0.1962,51
0.7836,-0.6135,-0.0571,0.0786,3.5105503,-76.287476,180.64252,184.92749,0.288,0.2241,51
0.7841,-0.6134,-0.0544,0.0764,3.4662676,-76.232254,180.77704,184.91924,0.2333,0.2465,51
0.7845,-0.6136,-0.0503,0.073,3.5190673,-76.20555,180.98431,184.89325,0.1791,0.2495,51
0.7848,-0.6141,-0.0452,0.069,3.7365286,-76.20973,181.27385,184.89143,0.1015,0.2363,51
0.785,-0.6147,-0.0394,0.0648,4.094235,-76.22786,181.64436,184.94003,0.0419,0.2368,51
0.785,-0.6155,-0.0336,0.0604,4.556978,-76.27758,181.99635,184.95905,0.0039,0.2299,51
0.7849,-0.6163,-0.0279,0.0562,5.0758095,-76.334595,182.35678,184.99713,-0.0537,0.2255,51
0.7848,-0.617,-0.0226,0.0522,5.5879836,-76.38386,182.68,185.02019,-0.0766,0.2333,51
0.7847,-0.6176,-0.0178,0.0487,6.063939,-76.425766,182.98578,185.06003,-0.1181,0.2236,51
0.7846,-0.618,-0.0137,0.0456,6.485964,-76.45236,183.2331,185.07901,-0.1464,0.2138,51
0.7848,-0.6181,-0.0105,0.0429,6.740783,-76.434746,183.38918,185.05232,-0.2041,0.1855,51
0.7849,-0.6181,-0.0087,0.0412,6.8608327,-76.4211,183.45601,185.01096,-0.2197,0.2089,51
0.7849,-0.6181,-0.0082,0.04,6.901144,-76.42083,183.39182,184.89354,-0.1845,0.2514,51
0.7848,-0.6184,-0.0083,0.0391,6.8671894,-76.45732,183.27768,184.75093,-0.1557,0.2646,51
0.7844,-0.6189,-0.0088,0.0386,6.769783,-76.53426,183.15521,184.62158,-0.1289,0.2802,51
0.7838,-0.6196,-0.0096,0.0385,6.5607047,-76.64403,183.03796,184.51619,-0.0869,0.31,51
0.782,-0.6219,-0.0105,0.0386,6.492359,-76.98298,182.9518,184.42967,-0.0561,0.3247,51
0.7811,-0.623,-0.0106,0.0386,6.4550943,-77.14635,182.95367,184.4195,-0.0419,0.3217,51
0.7802,-0.6242,-0.0105,0.0384,6.460758,-77.318054,182.96225,184.4032,-0.0361,0.3271,51
0.7794,-0.6252,-0.0102,0.038,6.512136,-77.46407,182.97421,184.38112,-0.0263,0.3398,51
0.7785,-0.6263,-0.0097,0.0372,6.58693,-77.625916,182.96991,184.32428,-0.0283,0.3491,51
0.7777,-0.6274,-0.0092,0.0362,6.6785417,-77.78093,182.94049,184.23782,-0.0356,0.3437,51
0.777,-0.6284,-0.0086,0.0352,6.756445,-77.91939,182.9235,184.16318,-0.0327,0.3315,51
0.7762,-0.6294,-0.008,0.0344,6.806046,-78.06476,182.93059,184.11862,-0.0288,0.3208,51
0.7754,-0.6304,-0.0074,0.034,6.837323,-78.20946,182.98502,184.13338,-0.0253,0.3144,51
0.7744,-0.6316,-0.0065,0.0341,6.841015,-78.38401,183.14673,184.2592,-0.0424,0.3027,51
0.7733,-0.6329,-0.0054,0.0348,6.811337,-78.57208,183.41245,184.49939,-0.0605,0.2812,51
0.7719,-0.6346,-0.004,0.0363,6.7523685,-78.812904,183.82663,184.89757,-0.0839,0.2529,51
0.7702,-0.6365,-0.0026,0.0384,6.6926746,-79.08981,184.32181,185.3895,-0.0932,0.226,51
0.7684,-0.6385,-0.0014,0.0406,6.637679,-79.38185,184.80609,185.87602,-0.0966,0.206,51
0.7669,-0.6403,-0.0007,0.0424,6.6410627,-79.63804,185.16571,186.24197,-0.0908,0.225,51
0.7657,-0.6416,-0.0002,0.0432,6.713404,-79.83309,185.36635,186.43329,-0.0678,0.247,51
0.765,-0.6425,0.0004,0.0431,6.924879,-79.95892,185.46068,186.49942,-0.0385,0.2797,51
0.7644,-0.6432,0.002,0.0423,7.2758417,-80.0541,185.61389,186.58618,-0.0234,0.3085,51
0.7636,-0.6443,0.0048,0.0412,7.752787,-80.18919,185.91466,186.78236,-0.0336,0.3134,51
0.7622,-0.6459,0.0089,0.0403,8.277221,-80.39695,186.44754,187.18231,-0.0883,0.2563,51
0.7603,-0.6481,0.0135,0.0398,8.768758,-80.68238,187.11937,187.71892,-0.1665,0.1884,51
0.7581,-0.6506,0.0177,0.0396,9.164345,-81.013596,187.77922,188.263,-0.226,0.1386,51
0.756,-0.653,0.0206,0.039,9.402502,-81.3445,188.1927,188.58603,-0.2656,0.0996,51
0.7542,-0.6551,0.0217,0.038,9.45264,-81.65328,188.27658,188.61406,-0.2446,0.1005,51
0.7523,-0.6574,0.0201,0.036,9.367745,-82.03047,187.82338,188.13948,-0.1264,0.124,51
0.7519,-0.6579,0.0186,0.0354,9.253322,-82.12682,187.52771,187.8582,-0.1025,0.1303,51
0.7517,-0.6583,0.0172,0.0354,9.104751,-82.193245,187.32175,187.67719,-0.1113,0.1274,51
0.7513,-0.6587,0.0158,0.0361,8.8663,-82.269394,187.21115,187.60443,-0.1538,0.1142,51
0.7509,-0.6591,0.0139,0.0376,8.551506,-82.34585,187.13058,187.58615,-0.1958,0.0781,51
0.7505,-0.6595,0.0115,0.0397,8.140105,-82.424095,187.0539,187.59175,-0.2153,0.0683,51
0.7501,-0.6598,0.0082,0.0421,7.200762,-82.50183,186.88,187.52173,-0.1914,0.0629,51
0.7499,-0.6598,0.0004,0.0467,6.8202157,-82.57211,186.30902,187.18056,-0.0527,0.1069,51
0.7498,-0.6598,-0.0029,0.0485,6.5293326,-82.60229,186.04836,187.01335,0.0078,0.1347,51
0.7495,-0.6599,-0.0056,0.0499,6.3423834,-82.65167,185.83011,186.86679,0.0278,0.1416,51
0.7491,-0.6603,-0.0074,0.0512,6.2196307,-82.72671,185.7401,186.82562,0.0131,0.1376,51
0.7485,-0.6609,-0.0087,0.0525,6.134445,-82.829895,185.73189,186.85233,-0.0175,0.1259,51
0.7477,-0.6617,-0.0099,0.0537,6.0136256,-82.96503,185.73175,186.87778,-0.0556,0.103,51
0.747,-0.6623,-0.0114,0.055,5.841963,-83.077545,185.69608,186.87675,-0.083,0.0859,51
0.7465,-0.6627,-0.0134,0.0563,5.6088033,-83.16162,185.57903,186.80606,-0.0844,0.0854,51
0.7462,-0.6629,-0.016,0.0577,5.32598,-83.21728,185.37845,186.66742,-0.0761,0.0747,51
0.7462,-0.6627,-0.0189,0.0591,5.00016,-83.21719,185.12222,186.48706,-0.0556,0.0732,51
0.7464,-0.6622,-0.0221,0.0606,4.659516,-83.176926,184.8265,186.28168,-0.0449,0.0678,51
0.7468,-0.6616,-0.0254,0.0622,4.307096,-83.11207,184.5241,186.07861,-0.0493,0.0629,51
0.7472,-0.6608,-0.0288,0.064,3.9641511,-83.029236,184.23041,185.89507,-0.0571,0.0478,51
0.7476,-0.6599,-0.0322,0.0659,3.6348562,-82.93669,183.9483,185.72908,-0.062,0.0346,51
0.7481,-0.659,-0.0356,0.068,3.3182316,-82.83561,183.69058,185.59528,-0.0678,0.0332,51
0.7487,-0.6579,-0.0389,0.0702,3.062089,-82.708694,183.4561,185.49359,-0.0659,0.0244,51
0.7493,-0.6569,-0.0418,0.0724,2.8523176,-82.5886,183.28278,185.44693,-0.0625,0.0258,51
0.7498,-0.6558,-0.0445,0.0746,2.7037752,-82.466705,183.13898,185.42957,-0.0546,0.0229,51
0.7503,-0.6548,-0.0466,0.0767,2.5617452,-82.35162,183.07323,185.47766,-0.0454,0.0249,51
0.7511,-0.6534,-0.0492,0.0798,2.5028355,-82.182625,183.0497,185.61624,-0.0327,0.0317,51
0.7515,-0.6528,-0.0496,0.0806,2.4496,-82.103134,183.07669,185.69083,-0.0229,0.0273,51
0.7518,-0.6523,-0.0496,0.081,2.3556287,-82.03801,183.11513,185.75673,-0.0351,0.0146,51
0.7524,-0.6518,-0.0493,0.0808,2.2257125,-81.94829,183.1154,185.77173,-0.04,0.0214,51
0.7531,-0.6511,-0.0487,0.0802,1.6317236,-81.832146,183.10425,185.76765,-0.0561,0.0366,51
0.7566,-0.6477,-0.0456,0.0764,1.5295832,-81.25879,182.96841,185.63388,-0.1152,0.0312,51
0.7573,-0.6469,-0.0448,0.0764,1.4049867,-81.13434,183.06435,185.74489,-0.1166,0.0405,51
0.7582,-0.6457,-0.0441,0.078,1.341701,-80.96211,183.33806,186.08614,-0.1147,0.0375,51
0.7587,-0.645,-0.0442,0.0792,1.286202,-80.86537,183.45491,186.25923,-0.0869,0.0517,51
0.7592,-0.6443,-0.0445,0.0803,1.1949958,-80.769264,183.52863,186.39146,-0.0561,0.0527,51
0.7598,-0.6434,-0.045,0.0809,1.0546185,-80.64853,183.50433,186.42479,-0.0034,0.0771,51
0.7606,-0.6425,-0.0455,0.0807,0.8763078,-80.51206,183.37637,186.33842,0.062,0.1079,51
0.7615,-0.6415,-0.0455,0.0798,0.7047291,-80.35658,183.2328,186.21217,0.1064,0.121,51
0.7626,-0.6405,-0.0447,0.0784,0.70448536,-80.18272,183.14366,186.11252,0.1352,0.1362,51
0.7636,-0.6396,-0.0427,0.0766,0.9741858,-80.020226,183.18768,186.10298,0.1191,0.1381,51
0.7645,-0.6389,-0.0397,0.0747,1.4028888,-79.87854,183.37344,186.20102,0.0737,0.1259,51
0.7652,-0.6385,-0.0361,0.0727,1.8841243,-79.77469,183.64418,186.35544,0.0356,0.123,51
0.7659,-0.6382,-0.0324,0.0703,2.381154,-79.67836,183.88257,186.4603,0.0146,0.1406,51
0.7665,-0.6379,-0.0288,0.0676,2.907543,-79.58964,184.07162,186.50676,0.0327,0.1674,51
0.7672,-0.6375,-0.0252,0.0645,3.4942935,-79.48504,184.20964,186.49234,0.0634,0.2119,51
0.7679,-0.6372,-0.0213,0.061,4.1596007,-79.388145,184.34544,186.45352,0.0957,0.2475,51
0.7686,-0.6368,-0.0169,0.0571,5.5790186,-79.28021,184.50642,186.41573,0.0976,0.2871,51
0.7693,-0.6369,-0.0072,0.0493,6.213147,-79.18908,184.98355,186.44823,0.038,0.2851,51
0.7693,-0.6372,-0.0028,0.0459,6.691377,-79.19275,185.22372,186.48459,-0.0097,0.2773,51
0.7691,-0.6376,0.0005,0.0433,6.9950223,-79.225586,185.40175,186.50621,-0.0546,0.2617,51
0.7688,-0.638,0.0027,0.0418,7.089042,-79.27029,185.55205,186.55711,-0.0781,0.25,51
0.7683,-0.6386,0.0035,0.0415,7.009651,-79.35397,185.64575,186.6161,-0.083,0.2392,51
0.7677,-0.6393,0.0032,0.0423,6.7829714,-79.45849,185.71347,186.70395,-0.059,0.2211,51
0.7672,-0.6398,0.002,0.0441,6.475847,-79.541664,185.76788,186.82791,-0.0395,0.1962,51
0.7667,-0.6402,0.0002,0.0463,6.145281,-79.61984,185.78215,186.93651,-0.0146,0.1865,51
0.7663,-0.6405,-0.0018,0.0486,5.7925797,-79.68355,185.77716,187.03372,-0.0043,0.1699,51
0.7662,-0.6405,-0.0042,0.0506,5.4774933,-79.70389,185.66861,187.0335,0.0024,0.1538,51
0.7663,-0.6403,-0.0065,0.0521,5.0180645,-79.69296,185.5082,186.96968,0.0175,0.1665,51
0.7669,-0.6393,-0.0104,0.0533,4.8909016,-79.588326,185.05734,186.66002,0.0141,0.1835,51
0.7682,-0.6379,-0.0129,0.0515,5.007425,-79.3925,184.43274,186.07689,0.0083,0.2104,51
0.7686,-0.6375,-0.0126,0.0502,5.201999,-79.32902,184.30879,185.91939,0.0004,0.2099,51
0.769,-0.6372,-0.0117,0.0486,5.4394712,-79.27122,184.2385,185.79114,-0.0126,0.2089,51
0.7694,-0.6369,-0.0105,0.0468,5.7115803,-79.21209,184.18866,185.67001,-0.0322,0.1997,51
0.7697,-0.6366,-0.009,0.0449,5.993145,-79.15879,184.17273,185.57127,-0.06,0.1967,51
0.77,-0.6364,-0.0074,0.043,6.259159,-79.11388,184.17282,185.48438,-0.0825,0.2001,51
0.7703,-0.6362,-0.0059,0.0412,6.4945917,-79.069534,184.17053,185.39978,-0.1152,0.2001,51
0.7707,-0.6359,-0.0046,0.0396,6.696279,-79.00995,184.16132,185.3196,-0.1274,0.2124,51
0.771,-0.6356,-0.0036,0.0381,6.857775,-78.95942,184.12132,185.21788,-0.1347,0.2241,51
0.7713,-0.6353,-0.0029,0.0368,6.9777946,-78.910355,184.06151,185.10901,-0.1445,0.228,51
0.7715,-0.6351,-0.0025,0.0357,7.0779877,-78.87878,183.9836,184.99365,-0.1381,0.2431,51
0.7716,-0.635,-0.0026,0.0343,7.0742326,-78.86719,183.7971,184.77336,-0.1171,0.2553,51
0.7715,-0.6352,-0.0029,0.034,7.046109,-78.894745,183.71858,184.69272,-0.1059,0.2656,51
0.7713,-0.6354,-0.0033,0.0339,7.016691,-78.92955,183.65051,184.63,-0.0869,0.2724,51
0.771,-0.6358,-0.0037,0.0338,6.9806695,-78.989296,183.58469,184.56758,-0.0786,0.2934,51
0.7707,-0.6361,-0.004,0.0339,6.939029,-79.03911,183.55736,184.54704,-0.062,0.29,51
0.7706,-0.6363,-0.0042,0.0342,6.87155,-79.06445,183.56662,184.56743,-0.0473,0.2861,51
0.7702,-0.6368,-0.0043,0.0349,6.831416,-79.136665,183.64465,184.66081,-0.0483,0.2885,51
0.7699,-0.637,-0.0041,0.0356,6.7769694,-79.17332,183.76437,184.79086,-0.0517,0.2792,51
0.7695,-0.6375,-0.0038,0.0366,6.6865187,-79.24222,183.93904,184.97829,-0.0566,0.2587,51
0.7688,-0.6382,-0.0035,0.0381,6.5906177,-79.34899,184.18037,185.24207,-0.0629,0.2329,51
0.7679,-0.6392,-0.003,0.04,6.466753,-79.4938,184.50642,185.5919,-0.0644,0.205,51
0.7668,-0.6404,-0.0027,0.0422,6.375781,-79.6705,184.8458,185.96397,-0.0766,0.1811,51
0.7657,-0.6416,-0.0024,0.0441,6.313517,-79.84756,185.15042,186.29247,-0.0698,0.1962,51
0.7649,-0.6424,-0.0022,0.0455,6.303079,-79.96962,185.37224,186.53253,-0.0454,0.2231,51
0.7644,-0.643,-0.002,0.0461,6.3873024,-80.055,185.4893,186.65114,-0.0195,0.247,51
0.764,-0.6435,-0.0012,0.0461,6.567509,-80.12142,185.61894,186.75504,-0.0185,0.2719,51
0.7633,-0.6443,0.0004,0.0459,6.863689,-80.22974,185.8503,186.93301,-0.0258,0.2685,51
0.7622,-0.6456,0.003,0.0456,7.2173996,-80.40159,186.22945,187.22797,-0.0585,0.2387,51
0.7607,-0.6474,0.006,0.0453,7.5623837,-80.640854,186.68015,187.58163,-0.123,0.1943,51
0.759,-0.6494,0.0087,0.0449,7.840589,-80.91403,187.07967,187.88918,-0.1733,0.1533,51
0.7575,-0.6512,0.0106,0.0443,8.005381,-81.16392,187.32951,188.06511,-0.205,0.1079,51
0.7562,-0.6526,0.0113,0.0435,8.0299425,-81.37913,187.36652,188.05449,-0.2055,0.0927,51
0.7554,-0.6536,0.0107,0.0427,7.9344726,-81.53756,187.19518,187.86789,-0.164,0.082,51
0.755,-0.6542,0.0091,0.0421,7.750653,-81.64102,186.88812,187.57443,-0.121,0.1005,51
0.7549,-0.6543,0.0069,0.0418,7.1859417,-81.68219,186.51988,187.24268,-0.0786,0.1103,51
0.7552,-0.6539,0.0021,0.0436,6.8169265,-81.66287,186.02132,186.88329,-0.1206,0.1176,51
0.7552,-0.6537,-0.0004,0.0459,6.3482237,-81.65796,185.94066,186.90381,-0.1669,0.0908,51
0.7551,-0.6537,-0.0035,0.0492,5.7966685,-81.679115,185.90233,186.99776,-0.1816,0.061,51
0.7549,-0.6536,-0.0073,0.053,5.1827135,-81.70365,185.82378,187.07616,-0.1694,0.0488,51
0.7547,-0.6533,-0.0118,0.0569,4.564909,-81.71674,185.65033,187.07784,-0.1152,0.0473,51
0.7548,-0.6528,-0.0164,0.0607,3.9982448,-81.69107,185.44087,187.04971,-0.0244,0.0791,51
0.755,-0.6521,-0.0207,0.0641,3.5501802,-81.639015,185.21988,187.00133,0.0517,0.1015,51
0.7551,-0.6516,-0.0243,0.0669,3.2299933,-81.60777,185.0305,186.95454,0.1088,0.1201,51
0.7552,-0.6512,-0.0269,0.0692,3.027225,-81.57916,184.92801,186.96313,0.1196,0.1235,51
0.7553,-0.6508,-0.0284,0.0712,2.9098501,-81.54392,184.9518,187.07062,0.0957,0.1215,51
0.7552,-0.6506,-0.0294,0.0727,2.5927188,-81.5386,184.99283,187.16785,0.0468,0.1074,51
0.7555,-0.6498,-0.0322,0.0761,2.4001036,-81.46081,184.98988,187.31862,-0.0429,0.0893,51
0.756,-0.649,-0.0337,0.077,2.1945724,-81.36242,184.858,187.26204,-0.038,0.0859,51
0.7566,-0.6481,-0.0353,0.0779,1.9679887,-81.24828,184.70749,187.19357,-0.0351,0.081,51
0.7574,-0.647,-0.037,0.0789,1.7706134,-81.1021,184.54753,187.12903,-0.0405,0.08,51
0.7581,-0.6459,-0.0386,0.08,1.584424,-80.9626,184.41676,187.09392,-0.0512,0.0766,51
0.7589,-0.6447,-0.0403,0.0813,1.4408493,-80.80733,184.29227,187.07758,-0.0688,0.0678,51
0.7597,-0.6435,-0.0419,0.0826,1.3562108,-80.65146,184.18208,187.07524,-0.0844,0.06,51
0.7605,-0.6423,-0.0436,0.0841,1.3412219,-80.49615,184.0813,187.09119,-0.0913,0.0532,51
0.7613,-0.6411,-0.0452,0.0856,1.400515,-80.340355,183.99458,187.12093,-0.1005,0.0532,51
0.7619,-0.6399,-0.0467,0.0871,1.5064312,-80.19897,183.92574,187.16464,-0.0957,0.0527,51
0.7625,-0.639,-0.0479,0.0885,1.6336193,-80.08242,183.89337,187.2293,-0.0898,0.0541,51
0.7629,-0.6382,-0.0488,0.0898,1.743029,-79.98803,183.89812,187.3166,-0.0766,0.0517,51
0.7631,-0.6378,-0.0493,0.0908,1.7552521,-79.941414,183.93573,187.40619,-0.0747,0.0585,51
0.766,-0.6344,-0.0482,0.091,1.7458725,-79.42251,184.00577,187.60025,-0.0639,0.0629,51
0.7668,-0.6335,-0.048,0.0907,1.7810673,-79.28295,183.96774,187.58723,-0.062,0.0693,51
0.7676,-0.6326,-0.0477,0.0907,1.8569218,-79.14308,183.98071,187.63084,-0.0483,0.0673,51
0.7681,-0.6319,-0.0473,0.0911,1.9488871,-79.042534,184.06555,187.7445,-0.0639,0.0703,51
0.7683,-0.6316,-0.0468,0.0918,2.0550363,-78.99877,184.2135,187.91168,-0.0625,0.0654,51
0.7685,-0.6313,-0.0461,0.0926,2.1312356,-78.95355,184.40245,188.118,-0.0551,0.0727,51
0.7687,-0.6311,-0.0452,0.0931,2.1315382,-78.91553,184.58646,188.30336,-0.0375,0.0927,51
0.769,-0.6308,-0.0444,0.0928,2.0070484,-78.86178,184.65668,188.35852,-0.0009,0.1201,51
0.7694,-0.6306,-0.0435,0.0912,1.832109,-78.8092,184.58694,188.23247,0.0263,0.1357,51
0.77,-0.6303,-0.0422,0.0886,1.684993,-78.73092,184.45181,188.00752,0.0498,0.1538,51
0.7707,-0.6301,-0.0401,0.0851,1.964367,-78.64975,184.32765,187.74571,0.0546,0.1508,51
0.7712,-0.6309,-0.0328,0.0771,2.3986695,-78.64256,184.45155,187.44514,-0.0224,0.1079,51
0.7709,-0.632,-0.0284,0.0728,2.9557047,-78.73761,184.6065,187.3405,-0.0639,0.0888,51
0.7705,-0.6332,-0.0239,0.0684,3.5629814,-78.84887,184.76514,187.235,-0.0961,0.0922,51
0.77,-0.6344,-0.0197,0.0636,4.2098775,-78.97114,184.83055,187.03604,-0.0737,0.1225,51
0.7697,-0.6354,-0.0158,0.0584,4.8689003,-79.06538,184.79474,186.742,-0.0405,0.1665,51
0.7697,-0.636,-0.0122,0.0531,5.5544763,-79.10613,184.69095,186.39636,-0.0039,0.2138,51
0.7699,-0.6362,-0.0087,0.0476,6.240369,-79.099625,184.53978,186.00845,0.041,0.2597,51
0.7703,-0.6362,-0.0053,0.0422,7.454111,-79.062706,184.38115,185.62181,0.0615,0.2871,51
0.7712,-0.6356,0.001,0.0333,7.8671203,-78.92973,184.21681,185.06715,0.0351,0.312,51
0.7713,-0.6355,0.0036,0.0308,8.095483,-78.90474,184.29625,185.0133,0.0161,0.3017,51
0.7711,-0.6359,0.0055,0.0299,8.116486,-78.94474,184.47264,185.11375,-0.0053,0.2778,51
0.7703,-0.6367,0.0065,0.0307,7.9424353,-79.0631,184.73164,185.36195,-0.0214,0.2329,51
0.7693,-0.6379,0.0064,0.0329,7.6230836,-79.23334,185.00456,185.68607,-0.0102,0.206,51
0.7682,-0.6391,0.0053,0.036,7.250646,-79.41478,185.24301,186.02197,0.0234,0.1801,51
0.7672,-0.6401,0.0036,0.0392,6.8877525,-79.57611,185.40463,186.29718,0.0415,0.1616,51
0.7665,-0.6407,0.0018,0.0422,6.5936375,-79.68244,185.52153,186.52672,0.08,0.1723,51
0.7662,-0.6409,0.0001,0.0443,6.403192,-79.7277,185.53407,186.63054,0.1127,0.1796,51
0.7662,-0.6409,-0.0013,0.0452,6.3124433,-79.73594,185.43709,186.59012,0.1196,0.1811,51
0.7665,-0.6406,-0.0023,0.0451,6.334469,-79.696266,185.26915,186.4482,0.1245,0.2124,51
0.7668,-0.6403,-0.0026,0.0443,6.463522,-79.65332,185.11903,186.2894,0.1069,0.2265,51
0.7671,-0.64,-0.0022,0.0429,6.677214,-79.606964,184.99924,186.12843,0.0883,0.2358,51
0.7675,-0.6397,-0.0012,0.0411,6.92455,-79.55013,184.91832,185.98164,0.0585,0.2324,51
0.7678,-0.6393,0,0.0391,7.21727,-79.49119,184.84344,185.8305,0.041,0.227,51
0.7683,-0.6389,0.0016,0.037,7.53064,-79.41515,184.8137,185.71222,0.02,0.226,51
0.7686,-0.6386,0.0035,0.035,7.8465595,-79.36012,184.84447,185.64706,-0.0141,0.2177,51
0.769,-0.6382,0.0055,0.0331,8.164606,-79.28795,184.9009,185.60776,-0.0395,0.2182,51
0.7694,-0.6379,0.0076,0.0313,8.434444,-79.223495,184.98547,185.59517,-0.0688,0.2084,51
0.7697,-0.6375,0.0094,0.0298,8.679351,-79.15861,185.06313,185.5904,-0.0996,0.1967,51
0.77,-0.6372,0.011,0.0284,8.858345,-79.10376,185.12419,185.57564,-0.1137,0.1962,51
0.7703,-0.6369,0.0121,0.0273,8.990685,-79.05165,185.14798,185.54381,-0.1245,0.1997,51
0.7707,-0.6363,0.0129,0.0265,9.072231,-78.966835,185.16147,185.5179,-0.1357,0.2158,51
0.7712,-0.6358,0.0132,0.0258,9.098008,-78.8873,185.11276,185.4449,-0.1347,0.2314,51
0.7717,-0.6352,0.0131,0.0254,9.071916,-78.80074,185.04108,185.3674,-0.1142,0.2446,51
0.7723,-0.6346,0.0117,0.0242,9.071916,-78.72082,184.6793,185.01285,-0.0678,0.2709,51
0.7723,-0.6346,0.0117,0.0242,9.101409,-78.72082,184.6793,185.01285,-0.0678,0.2709,51
0.7721,-0.6348,0.0111,0.0231,9.1617985,-78.76234,184.4599,184.7791,-0.0444,0.311,51
0.772,-0.635,0.0112,0.0224,9.263169,-78.789566,184.3915,184.68878,-0.0493,0.3071,51
0.7719,-0.6351,0.0115,0.0214,9.36505,-78.80781,184.31573,184.57811,-0.0493,0.2944,51
0.7718,-0.6353,0.0119,0.0205,9.46724,-78.83376,184.26723,184.49467,-0.0727,0.29,51
0.7717,-0.6355,0.0123,0.0196,9.57021,-78.859764,184.2186,184.41125,-0.0766,0.2827,51
0.7716,-0.6356,0.0127,0.0187,9.641453,-78.876915,184.16948,184.32759,-0.0986,0.2729,51
0.7715,-0.6357,0.013,0.0181,9.690897,-78.893524,184.142,184.27623,-0.1132,0.2641,51
0.7716,-0.6356,0.0133,0.0178,9.700048,-78.87663,184.14874,184.26732,-0.1162,0.248,51
0.7716,-0.6356,0.0136,0.018,9.677818,-78.87373,184.21759,184.33356,-0.1289,0.2441,51
0.7715,-0.6357,0.014,0.0187,9.623993,-78.88397,184.36337,184.48717,-0.142,0.2275,51
0.7712,-0.636,0.0144,0.0198,9.530314,-78.92437,184.56053,184.70235,-0.1386,0.2172,51
0.7707,-0.6366,0.0146,0.0212,9.437806,-79.00559,184.7681,184.94037,-0.122,0.1982,51
0.7701,-0.6372,0.0147,0.0225,9.368617,-79.09507,184.95029,185.15256,-0.1015,0.2016,51
0.7696,-0.6378,0.0147,0.0234,9.330705,-79.1799,185.0683,185.29245,-0.0664,0.2216,51
0.7693,-0.6382,0.0147,0.0239,9.381311,-79.2345,185.1346,185.37064,-0.0375,0.2402,51
0.769,-0.6386,0.0152,0.0238,9.508792,-79.287926,185.20158,185.4213,-0.0185,0.2651,51
0.7685,-0.6391,0.0164,0.0235,9.725483,-79.35969,185.35059,185.53094,-0.0229,0.2719,51
0.7677,-0.64,0.0185,0.0231,10.012716,-79.48065,185.62628,185.74199,-0.0498,0.2587,51
0.7665,-0.6413,0.0214,0.0228,10.317455,-79.65658,186.04018,186.07487,-0.0903,0.2309,51
0.765,-0.6431,0.0246,0.0228,10.848713,-79.89093,186.54303,186.4993,-0.1342,0.1958,51
0.7616,-0.6468,0.03,0.0231,10.985275,-80.398575,187.44823,187.28795,-0.2143,0.101,51
0.7603,-0.6483,0.0313,0.0233,10.985275,-80.60672,187.69312,187.51079,-0.227,0.0878,51
0.7603,-0.6483,0.0313,0.0233,10.918199,-80.60672,187.69312,187.51079,-0.227,0.0878,51
0.7585,-0.6505,0.0303,0.0236,10.713846,-80.941025,187.61673,187.4687,-0.1464,0.0732,51
0.758,-0.6511,0.0283,0.0241,10.42375,-81.05116,187.39006,187.2982,-0.0966,0.0859,51
0.7578,-0.6513,0.0256,0.0248,10.040093,-81.110565,187.07764,187.06023,-0.0747,0.0971,51
0.758,-0.6512,0.0224,0.0261,9.60128,-81.11445,186.76022,186.8408,-0.0649,0.0981,51
0.7584,-0.6508,0.0191,0.028,9.102294,-81.07329,186.50055,186.69531,-0.083,0.104,51
0.7587,-0.6504,0.0157,0.0307,8.564793,-81.03485,186.3294,186.65926,-0.1059,0.0996,51
0.7587,-0.6503,0.0122,0.034,7.998023,-81.04214,186.22554,186.70523,-0.0991,0.0795,51
0.7587,-0.6502,0.0085,0.0375,7.4390635,-81.050514,186.11693,186.7554,-0.0917,0.0722,51
0.7585,-0.6502,0.0048,0.041,6.9170394,-81.08274,186.01178,186.80746,-0.0522,0.0756,51
0.7584,-0.6501,0.0013,0.0442,6.4832177,-81.09868,185.89594,186.83868,-0.0014,0.1015,51
0.7583,-0.6501,-0.0017,0.0468,6.1665716,-81.12161,185.77928,186.84383,0.0351,0.1147,51
0.7581,-0.6502,-0.0039,0.0488,5.9588046,-81.15621,185.70863,186.86243,0.06,0.1303,51
0.7578,-0.6504,-0.0052,0.0505,5.8539925,-81.20046,185.7375,186.95267,0.0454,0.1274,51
0.7574,-0.6508,-0.0057,0.0519,5.8045654,-81.26393,185.85211,187.10175,0.0073,0.1103,51
0.7568,-0.6513,-0.0059,0.053,5.740802,-81.34955,185.9782,187.24611,-0.0371,0.1137,51
0.7563,-0.6519,-0.0063,0.0541,5.6455836,-81.43816,186.07413,187.36357,-0.0805,0.1005,51
0.7558,-0.6523,-0.007,0.0552,5.488025,-81.5122,186.12328,187.44212,-0.0927,0.0883,51
0.7555,-0.6526,-0.0083,0.0563,5.2725744,-81.56811,186.0779,187.44057,-0.103,0.0874,51
0.7553,-0.6526,-0.01,0.0576,4.999401,-81.5933,185.9931,187.41632,-0.0947,0.0825,51
0.7553,-0.6525,-0.0121,0.0592,4.6749477,-81.59718,185.88206,187.38358,-0.0917,0.0668,51
0.7555,-0.6521,-0.0145,0.061,4.3224883,-81.56179,185.74435,187.34119,-0.1,0.0644,51
0.7556,-0.6516,-0.0171,0.0631,3.9647417,-81.525764,185.61536,187.31941,-0.0893,0.0468,51
0.7557,-0.6512,-0.0198,0.0654,3.6041827,-81.498604,185.49783,187.31482,-0.0874,0.0463,51
0.7558,-0.6507,-0.0225,0.068,3.278181,-81.46207,185.41695,187.35626,-0.0786,0.0346,51
0.7558,-0.6504,-0.0252,0.0705,2.9943407,-81.45074,185.32736,187.38258,-0.0727,0.0317,51
0.7558,-0.6501,-0.0277,0.073,2.610153,-81.43811,185.26744,187.4351,-0.0566,0.0307,51
0.7556,-0.6496,-0.0318,0.0771,2.5425353,-81.43209,185.1723,187.52242,-0.0302,0.0375,51
0.7554,-0.6496,-0.033,0.0787,2.5319843,-81.45331,185.20038,187.60793,-0.0302,0.0371,51
0.7551,-0.6497,-0.0337,0.0798,2.5666335,-81.488,185.24333,187.68298,-0.038,0.0278,51
0.7549,-0.6499,-0.0338,0.0806,2.6419678,-81.52015,185.33759,187.79007,-0.0375,0.0141,51
0.7545,-0.6503,-0.0336,0.0811,2.7255945,-81.58292,185.44603,187.89078,-0.0488,0.0073,51
0.7542,-0.6507,-0.0331,0.0813,2.7880526,-81.636345,185.55923,187.98521,-0.0673,0.0019,51
0.754,-0.6509,-0.0326,0.0814,2.836178,-81.66491,185.6544,188.06555,-0.0922,-0.0004,51
0.7539,-0.651,-0.0321,0.0814,2.8891754,-81.67735,185.7331,188.13104,-0.0952,-0.0087,51
0.7539,-0.6511,-0.0315,0.0815,2.916468,-81.68127,185.8374,188.22426,-0.1098,-0.018,51
0.754,-0.6509,-0.031,0.0818,2.9565868,-81.6519,185.94522,188.33586,-0.1132,-0.0253,51
0.7541,-0.6507,-0.0305,0.0825,3.0160503,-81.6216,186.10393,188.5077,-0.1225,-0.0229,51
0.7542,-0.6505,-0.03,0.0837,3.098358,-81.58992,186.32607,188.75484,-0.1284,-0.0356,51
0.7542,-0.6503,-0.0295,0.0852,3.2125974,-81.564545,186.58817,189.0477,-0.1284,-0.0336,51
0.7541,-0.6502,-0.029,0.087,3.3249588,-81.553925,186.89189,189.38577,-0.1181,-0.018,51
0.7542,-0.6499,-0.0284,0.0888,3.4565117,-81.509186,187.20172,189.73645,-0.0986,0.0112,51
0.7543,-0.6496,-0.0274,0.0902,3.5817397,-81.4607,187.5199,190.07881,-0.0639,0.0317,51
0.7543,-0.6495,-0.0263,0.091,3.6572375,-81.43721,187.7829,190.3434,-0.0234,0.0683,51
0.7545,-0.6494,-0.025,0.0907,3.714039,-81.400085,187.93198,190.46652,0.0195,0.1201,51
0.7548,-0.6493,-0.0233,0.0893,3.8085005,-81.355095,187.99982,190.47507,0.0517,0.1489,51
0.7552,-0.6493,-0.0209,0.0868,4.0188885,-81.30792,188.03307,190.40746,0.0576,0.1787,51
0.7554,-0.6495,-0.0177,0.0837,4.365737,-81.286644,188.11852,190.35442,0.0253,0.1948,51
0.7554,-0.65,-0.0138,0.0803,4.78919,-81.2996,188.28001,190.34822,-0.0136,0.1831,51
0.7552,-0.6508,-0.0098,0.0768,5.22408,-81.35289,188.45244,190.34201,-0.0634,0.1704,51
0.7547,-0.6518,-0.0062,0.0734,5.592657,-81.45054,188.58643,190.30327,-0.0976,0.1733,51
0.7543,-0.6527,-0.0034,0.0702,6.1094365,-81.54151,188.62053,190.19052,-0.121,0.1684,51
0.7535,-0.6542,-0.0002,0.0645,6.2569675,-81.72556,188.40913,189.75903,-0.0834,0.186,51
0.7531,-0.6549,0.0002,0.0619,6.3446603,-81.82733,188.15202,189.42386,-0.0415,0.2026,51
0.7529,-0.6553,-0.0001,0.0589,6.3925066,-81.89863,187.72816,188.93321,0.0107,0.2124,51
0.753,-0.6556,-0.001,0.0556,6.4036727,-81.945786,187.16609,188.31409,0.0517,0.225,51
0.7532,-0.6556,-0.0024,0.0523,6.406633,-81.961945,186.52217,187.62772,0.0708,0.2324,51
0.7539,-0.6552,-0.0051,0.0471,6.3569717,-81.92084,185.42143,186.47821,0.0566,0.2465,51
0.7542,-0.6549,-0.0063,0.0459,6.2532754,-81.885864,185.07639,186.13647,0.0278,0.2226,51
0.7542,-0.6548,-0.0074,0.046,6.0944133,-81.884995,184.9223,186.0069,0.0151,0.1845,51
0.7538,-0.6552,-0.0084,0.0476,5.9011374,-81.95201,184.98955,186.11957,-0.0019,0.1528,51
0.7529,-0.656,-0.0094,0.0504,5.7205667,-82.08767,185.22588,186.41663,-0.0073,0.1088,51
0.7519,-0.6569,-0.0103,0.0536,5.5397787,-82.23749,185.53448,186.78815,0.0073,0.081,51
0.7512,-0.6574,-0.0113,0.0565,5.385395,-82.331955,185.78117,187.09955,0.0161,0.0874,51
0.7511,-0.6574,-0.012,0.0587,5.252246,-82.33789,185.9657,187.34123,0.0463,0.1,51
0.7515,-0.6568,-0.0125,0.0598,5.171049,-82.25642,186.01971,187.44014,0.0571,0.142,51
0.7523,-0.6558,-0.0126,0.0597,5.1838984,-82.11092,185.96489,187.40811,0.0615,0.1699,51
0.7533,-0.6549,-0.012,0.0589,5.282653,-81.95545,185.9225,187.36084,0.0507,0.1977,51
0.7541,-0.6541,-0.0109,0.0576,5.4516177,-81.821175,185.8961,187.30464,0.0219,0.2133,51
0.7546,-0.6536,-0.0094,0.0562,5.6550393,-81.73239,185.92644,187.28702,0.0029,0.2133,51
0.755,-0.6533,-0.0077,0.0548,5.861237,-81.66675,185.99126,187.29549,-0.018,0.2143,51
0.7552,-0.6531,-0.006,0.0536,6.034135,-81.62391,186.08669,187.33525,-0.0405,0.2143,51
0.7554,-0.653,-0.0045,0.0528,6.156053,-81.58979,186.20477,187.40887,-0.0473,0.2128,51
0.7557,-0.6527,-0.0033,0.0523,6.2407236,-81.53218,186.31259,187.48756,-0.0512,0.2055,51
0.756,-0.6524,-0.0024,0.052,6.284547,-81.4764,186.40108,187.55698,-0.06,0.2036,51
0.7564,-0.6519,-0.0018,0.0518,6.2982297,-81.39818,186.4535,187.60126,-0.0732,0.2006,51
0.7569,-0.6514,-0.0014,0.0518,6.074223,-81.31347,186.4998,187.6485,-0.0854,0.1923,51
0.7585,-0.6495,-0.0025,0.0525,6.074223,-81.03656,186.37685,187.59688,-0.0776,0.2084,51
0.7585,-0.6495,-0.0025,0.0525,6.074223,-81.03656,186.37685,187.59688,-0.0776,0.2084,51
0.7585,-0.6495,-0.0025,0.0525,5.860845,-81.03656,186.37685,187.59688,-0.0776,0.2084,51
0.7593,-0.6484,-0.004,0.053,5.769825,-80.89338,186.19049,187.4723,-0.0375,0.2294,51
0.7596,-0.6481,-0.0047,0.0532,5.714505,-80.850624,186.1028,187.41005,-0.0341,0.2392,51
0.7597,-0.6479,-0.0052,0.0532,5.7365894,-80.830345,186.02417,187.34523,-0.0175,0.247,51
0.7596,-0.6481,-0.0052,0.0529,5.801854,-80.856476,185.98994,187.30083,-0.0209,0.2636,51
0.7594,-0.6484,-0.0048,0.0526,5.8875804,-80.8951,186.0183,187.30855,-0.0297,0.2607,51
0.7591,-0.6487,-0.0041,0.0525,5.9699645,-80.93751,186.11859,187.38588,-0.0629,0.2485,51
0.7587,-0.6492,-0.0034,0.0526,6.0251412,-81.003784,186.24814,187.49426,-0.0673,0.2343,51
0.7582,-0.6497,-0.0028,0.0531,6.038499,-81.07642,186.4155,187.65121,-0.0776,0.228,51
0.7577,-0.6502,-0.0024,0.0541,5.972848,-81.14844,186.61694,187.85799,-0.0917,0.2055,51
0.7573,-0.6506,-0.0026,0.0555,5.830853,-81.208244,186.77701,188.04669,-0.0878,0.1948,51
0.757,-0.6508,-0.0034,0.0572,5.636377,-81.24791,186.88165,188.20203,-0.0668,0.1889,51
0.7568,-0.6509,-0.0046,0.0592,5.4235687,-81.27431,186.96176,188.34966,-0.0493,0.1958,51
0.7565,-0.6509,-0.006,0.0613,5.2219095,-81.30126,187.02545,188.4874,-0.0249,0.207,51
0.7562,-0.6511,-0.0074,0.0635,5.0200915,-81.34537,187.1045,188.63979,-0.0058,0.2065,51
0.7559,-0.6513,-0.0089,0.0657,4.860128,-81.39078,187.16884,188.77893,0.0244,0.2084,51
0.7554,-0.6515,-0.0102,0.0677,4.741786,-81.45014,187.2421,188.91571,0.0332,0.2187,51
0.755,-0.6519,-0.0113,0.0694,4.682564,-81.518845,187.30809,189.03166,0.0351,0.2211,51
0.7544,-0.6523,-0.012,0.0709,4.6991553,-81.59918,187.4133,189.17151,0.0307,0.2138,51
0.7537,-0.653,-0.0122,0.0723,4.8093243,-81.70804,187.58781,189.362,0.02,0.1982,51
0.7528,-0.6539,-0.0117,0.0737,4.9907036,-81.841064,187.87576,189.64645,-0.0131,0.1752,51
0.7515,-0.6552,-0.0109,0.075,5.2369924,-82.03507,188.21269,189.95993,-0.0551,0.1347,51
0.7501,-0.6568,-0.0097,0.0763,5.629772,-82.25661,188.6189,190.32889,-0.101,0.1044,51
0.7471,-0.6599,-0.0086,0.0781,5.681484,-82.72508,189.14229,190.78064,-0.1704,0.0151,51
0.7461,-0.661,-0.0092,0.0784,5.647802,-82.90163,189.13435,190.75607,-0.165,0.0166,51
0.7455,-0.6616,-0.0103,0.0787,5.5344396,-83.01153,189.03278,190.65912,-0.1474,0.0161,51
0.7453,-0.6618,-0.0119,0.0792,5.4235783,-83.06192,188.8652,190.52017,-0.1542,0.0209,51
0.745,-0.6619,-0.0136,0.0804,5.276888,-83.1084,188.77576,190.47534,-0.1718,0.0092,51
0.7449,-0.6618,-0.0157,0.0823,5.1432524,-83.123795,188.70966,190.48085,-0.1865,-0.0258,51
0.7446,-0.6616,-0.0182,0.0852,5.016143,-83.14583,188.71826,190.58673,-0.1992,-0.0468,51
0.7444,-0.6614,-0.0214,0.0889,4.939445,-83.16543,188.72339,190.71788,-0.1826,-0.061,51
0.7441,-0.6609,-0.025,0.0932,4.924175,-83.16966,188.74353,190.88808,-0.1386,-0.0507,51
0.744,-0.6603,-0.0288,0.0976,5.0138865,-83.15284,188.73785,191.04474,-0.0786,-0.0405,51
0.7439,-0.6596,-0.0321,0.102,5.17359,-83.122345,188.80376,191.27032,-0.0302,-0.0273,51
0.7438,-0.6589,-0.0349,0.1061,5.38205,-83.08788,188.90393,191.51857,0.0195,-0.0112,51
0.7437,-0.6584,-0.0368,0.1097,5.605954,-83.06233,189.077,191.81198,0.0551,0.0004,51
0.7434,-0.658,-0.0378,0.1127,5.8010855,-83.052185,189.31468,192.13774,0.0693,0.0141,51
0.743,-0.6581,-0.0384,0.1148,5.960649,-83.09106,189.51044,192.3782,0.0654,0.0097,51
0.7425,-0.6584,-0.0386,0.1162,6.0521927,-83.152275,189.68405,192.56621,0.0561,0.0166,51
0.7422,-0.6587,-0.0386,0.1169,6.0946875,-83.198265,189.79115,192.67322,0.0581,0.0361,51
0.7419,-0.659,-0.0384,0.117,6.0911527,-83.24398,189.85106,192.7164,0.0429,0.0454,51
0.7418,-0.6592,-0.038,0.1167,6.060815,-83.264755,189.88031,192.72495,0.0312,0.0498,51
0.7418,-0.6593,-0.0376,0.1162,6.0415444,-83.270096,189.87805,192.70287,0.0205,0.0478,51
0.7418,-0.6593,-0.0373,0.1159,6.032126,-83.26735,189.88426,192.6983,-0.0126,0.0336,51
0.7419,-0.6593,-0.0371,0.1158,6.046578,-83.25748,189.89795,192.70947,-0.0385,0.0244,51
0.7419,-0.6592,-0.0374,0.1161,6.0776434,-83.251625,189.8894,192.7148,-0.0683,0.0146,51
0.742,-0.6589,-0.0379,0.1168,6.1638327,-83.22195,189.89438,192.75418,-0.1015,-0.0014,51
0.742,-0.6587,-0.0389,0.1181,6.2762756,-83.21274,189.90738,192.81668,-0.1054,-0.0312,51
0.7419,-0.6584,-0.0403,0.1197,6.5694256,-83.206764,189.89996,192.87189,-0.1083,-0.0302,51
0.742,-0.6573,-0.0436,0.1238,6.7424474,-83.1324,189.90224,193.0524,-0.0776,-0.0541,51
0.7421,-0.6567,-0.0453,0.126,6.940159,-83.087494,189.91107,193.15889,-0.0625,-0.0458,51
0.742,-0.6562,-0.0466,0.1282,7.1381874,-83.06147,189.98828,193.32104,-0.0556,-0.0512,51
0.7419,-0.6558,-0.0477,0.1303,7.341406,-83.04198,190.08449,193.4944,-0.0522,-0.0434,51
0.7417,-0.6556,-0.0484,0.1323,7.5117097,-83.042496,190.23578,193.7061,-0.0532,-0.0502,51
0.7416,-0.6554,-0.0488,0.134,7.6480308,-83.03238,190.38962,193.91223,-0.0541,-0.0434,51
0.7417,-0.655,-0.0489,0.1355,7.7750945,-82.9862,190.54945,194.12894,-0.0458,-0.0229,51
0.7418,-0.6546,-0.0485,0.1369,7.9076085,-82.93308,190.77011,194.39842,-0.0512,-0.0151,51
0.742,-0.6541,-0.0474,0.1384,8.039807,-82.852394,191.09943,194.77776,-0.0644,-0.0087,51
0.7422,-0.6538,-0.0459,0.1398,8.123419,-82.78195,191.47961,195.19359,-0.0756,-0.0068,51
0.7424,-0.6534,-0.0442,0.1407,8.158493,-82.700455,191.82321,195.56107,-0.0776,0.0258,51
0.7427,-0.6531,-0.0425,0.1411,8.107118,-82.62127,192.10297,195.85004,-0.0659,0.0585,51
0.7432,-0.6527,-0.0406,0.1407,7.9729104,-82.51836,192.30228,196.04254,-0.0507,0.0952,51
0.7438,-0.6524,-0.0383,0.1394,7.7708716,-82.4143,192.44846,196.14989,-0.038,0.1225,51
0.7445,-0.6523,-0.0358,0.1373,7.483161,-82.32119,192.52757,196.15944,-0.0307,0.1474,51
0.7452,-0.6523,-0.0333,0.1342,7.1669025,-82.243515,192.48683,196.01672,-0.0224,0.1616,51
0.7459,-0.6523,-0.0307,0.1306,6.8379908,-82.16797,192.39952,195.81126,-0.0361,0.1674,51
0.7466,-0.6523,-0.0283,0.1267,6.553627,-82.09883,192.24582,195.5332,-0.0556,0.1699,51
0.7473,-0.6524,-0.0262,0.1231,6.3335853,-82.04233,192.08737,195.2592,-0.0781,0.1904,51
0.7478,-0.6524,-0.0245,0.1201,6.2082496,-81.99567,191.94888,195.0256,-0.1103,0.2055,51
0.7478,-0.6528,-0.0233,0.1179,6.161033,-82.02476,191.86266,194.8517,-0.1518,0.1918,51
0.7475,-0.6534,-0.0228,0.1167,6.160853,-82.09905,191.8118,194.73924,-0.186,0.1782,51
0.7469,-0.6542,-0.0233,0.1164,6.2007856,-82.224236,191.73982,194.63297,-0.2041,0.1582,51
0.7461,-0.655,-0.0246,0.1169,6.238362,-82.37257,191.65634,194.54297,-0.2031,0.1352,51
0.7453,-0.6556,-0.0269,0.1179,6.2773976,-82.51686,191.48283,194.3942,-0.1772,0.1313,51
0.7446,-0.656,-0.0297,0.1191,6.339762,-82.642624,191.25227,194.2063,-0.1591,0.1269,51
0.7438,-0.6562,-0.0359,0.1214,6.3915305,-82.80348,190.65414,193.72557,-0.1152,0.1098,51
0.7435,-0.6561,-0.0388,0.1225,6.450905,-82.85445,190.37012,193.50339,-0.0913,0.1123,51
0.7432,-0.6561,-0.0414,0.1234,6.5389147,-82.909584,190.10777,193.29007,-0.0834,0.1,51
0.7428,-0.6563,-0.0438,0.1243,6.6220117,-82.98596,189.88364,193.10242,-0.0844,0.0952,51
0.7425,-0.6564,-0.0459,0.1251,6.694681,-83.04181,189.68553,192.9396,-0.0761,0.1069,51
0.7422,-0.6565,-0.0477,0.1257,6.7547226,-83.09394,189.50665,192.78677,-0.0688,0.1074,51
0.742,-0.6565,-0.0492,0.1262,6.7976103,-83.12601,189.35376,192.65947,-0.0571,0.1074,51
0.7418,-0.6565,-0.0503,0.1265,6.8269153,-83.15355,189.23492,192.55624,-0.0517,0.1088,51
0.7416,-0.6566,-0.0514,0.1266,6.827058,-83.18995,189.09302,192.42139,-0.0385,0.1074,51
0.7415,-0.6567,-0.0516,0.1265,6.81128,-83.20872,189.0563,192.37846,-0.0327,0.1059,51
0.7415,-0.6568,-0.0516,0.1263,6.7773514,-83.217766,189.03322,192.34702,-0.0336,0.1118,51
0.7416,-0.6568,-0.0516,0.126,6.748759,-83.21076,188.99136,192.3007,-0.0322,0.1191,51
0.7417,-0.6567,-0.0515,0.1258,6.7190604,-83.19382,188.97475,192.28436,-0.0341,0.1289,51
0.7417,-0.6567,-0.0514,0.1255,6.6931086,-83.19335,188.9512,192.25244,-0.0312,0.1416,51
0.7417,-0.6568,-0.0513,0.1252,6.6855717,-83.20149,188.93019,192.21947,-0.0332,0.145,51
0.7416,-0.657,-0.0512,0.125,6.676813,-83.225685,188.92786,192.20134,-0.0297,0.1484,51
0.7414,-0.6573,-0.051,0.1247,6.6742043,-83.265236,188.93346,192.18135,-0.0351,0.1552,51
0.7411,-0.6576,-0.0509,0.1244,6.6703863,-83.31357,188.92743,192.14835,-0.0458,0.1596,51
0.7409,-0.658,-0.0507,0.1241,6.673446,-83.36173,188.93544,192.12735,-0.0556,0.1518,51
0.7406,-0.6584,-0.0507,0.1238,6.673653,-83.41977,188.91684,192.07954,-0.0673,0.1513,51
0.7403,-0.6587,-0.0508,0.1235,6.6796393,-83.470314,188.88066,192.01895,-0.0727,0.1445,51
0.7401,-0.659,-0.0511,0.1233,6.6928577,-83.51511,188.82405,191.94528,-0.0693,0.1386,51
0.7398,-0.6593,-0.0516,0.1231,6.688676,-83.569664,188.74072,191.84453,-0.0722,0.1289,51
0.7397,-0.6594,-0.0522,0.1229,6.674275,-83.592606,188.63066,191.73067,-0.0722,0.1411,51
0.7396,-0.6595,-0.0535,0.1225,6.6642494,-83.62275,188.38953,191.48943,-0.0756,0.1455,51
0.7396,-0.6595,-0.0542,0.1223,6.6510196,-83.629906,188.25848,191.36209,-0.0737,0.1342,51
0.7396,-0.6594,-0.0549,0.1221,6.6137977,-83.628265,188.12492,191.2359,-0.0712,0.1357,51
0.7397,-0.6593,-0.0555,0.1217,6.5816875,-83.61803,187.97705,191.09256,-0.0761,0.1391,51
0.7398,-0.6593,-0.0561,0.1213,6.5452685,-83.616135,187.83162,190.94814,-0.0634,0.1347,51
0.7399,-0.6593,-0.0564,0.1209,6.5225725,-83.61139,187.7312,190.84521,-0.0688,0.1323,51
0.7398,-0.6594,-0.0566,0.1205,6.501037,-83.629654,187.65456,190.75575,-0.0732,0.1342,51
0.7397,-0.6596,-0.0566,0.1201,6.4710193,-83.65475,187.61032,190.69275,-0.0786,0.1303,51
0.7396,-0.6598,-0.0566,0.1196,6.4397078,-83.679855,187.55292,190.61443,-0.0883,0.1201,51
0.7395,-0.66,-0.0565,0.1191,6.3984213,-83.70411,187.51045,190.54993,-0.0781,0.125,51
0.7394,-0.6602,-0.0563,0.1185,6.362451,-83.72756,187.46982,190.484,-0.0898,0.1308,51
0.7393,-0.6605,-0.0561,0.1179,6.3171043,-83.75958,187.43147,190.4169,-0.0815,0.124,51
0.6629,-0.5864,0.3585,-0.2966,0.55508864,-82.13716,193.7786,182.74509,0.2246,0.4448,51
0.6604,-0.5878,0.3576,-0.3004,1.2202891,-82.6007,192.91656,182.39978,0.225,0.5214,51
0.6577,-0.5881,0.3577,-0.3057,2.011351,-83.01938,192.04092,181.90202,0.186,0.5776,51
0.6549,-0.5872,0.3586,-0.3122,2.9413035,-83.37463,191.18123,181.25589,0.1416,0.5957,51
0.6521,-0.5853,0.3601,-0.3198,10.704245,-83.67874,190.32144,180.45946,0.1127,0.6069,51
0.6403,-0.5547,0.3706,-0.3806,11.616481,-84.254845,185.4022,172.03053,-0.1616,0.1342,51
0.6403,-0.5499,0.3704,-0.3876,12.447667,-84.15638,184.91144,170.70175,-0.1948,0.0751,51
0.6408,-0.5453,0.3695,-0.394,13.155487,-84.02491,184.43826,169.3525,-0.2109,0.0302,51
0.6416,-0.5412,0.3684,-0.3994,13.768845,-83.869446,184.05298,168.1354,-0.2246,0.0058,51
0.6428,-0.5375,0.3666,-0.4041,14.321615,-83.69797,183.6655,166.93427,-0.2026,-0.0019,51
0.6442,-0.5341,0.3643,-0.4083,15.237382,-83.51842,183.27098,165.75188,-0.1855,-0.0068,51
0.6473,-0.5288,0.3586,-0.4153,15.626525,-83.19842,182.42354,163.54118,-0.1401,-0.0419,51
0.6486,-0.5269,0.3557,-0.4183,15.978842,-83.087585,181.98221,162.56787,-0.1108,-0.038,51
0.6499,-0.5251,0.3529,-0.4209,16.29407,-82.96258,181.59305,161.67038,-0.1049,-0.0312,51
0.651,-0.5236,0.3503,-0.4232,16.584972,-82.85865,181.22737,160.87122,-0.0981,-0.0278,51
0.652,-0.5223,0.3478,-0.4253,16.84362,-82.76585,180.87578,160.1317,-0.0913,-0.017,51
0.6528,-0.5213,0.3456,-0.4272,17.512177,-82.69937,180.54755,159.4885,-0.0893,-0.0156,51
0.6548,-0.5196,0.3381,-0.4321,17.522957,-82.60087,179.417,157.6547,-0.082,-0.0068,51
0.6545,-0.5213,0.3355,-0.4326,17.453547,-82.79767,178.89609,157.36905,-0.04,0.0483,51
0.654,-0.5222,0.3354,-0.4323,17.335001,-82.905495,178.80762,157.47469,-0.0473,0.0698,51
0.6532,-0.5234,0.3357,-0.4317,17.17585,-83.051544,178.75278,157.70552,-0.0625,0.0859,51
0.6526,-0.5247,0.3362,-0.4308,16.980656,-83.18001,178.75633,158.00389,-0.0883,0.1108,51
0.652,-0.5261,0.3368,-0.4296,16.74045,-83.30727,178.79353,158.36365,-0.0922,0.1196,51
0.6516,-0.5276,0.3373,-0.428,16.469398,-83.415955,178.86346,158.76398,-0.0966,0.1489,51
0.6513,-0.5291,0.3378,-0.4261,16.15728,-83.50746,178.97086,159.20158,-0.0917,0.1689,51
0.6511,-0.5308,0.3383,-0.4239,15.824011,-83.598015,179.10036,159.69029,-0.0888,0.1865,51
0.651,-0.5325,0.3388,-0.4215,15.0794735,-83.67366,179.2589,160.20267,-0.0791,0.1958,51
0.6511,-0.5359,0.34,-0.416,14.667925,-83.77438,179.70047,161.33795,-0.0781,0.2236,51
0.6513,-0.5376,0.3407,-0.4129,14.243429,-83.79878,179.98514,161.9604,-0.1005,0.2309,51
0.6515,-0.5394,0.3413,-0.4097,13.794665,-83.82759,180.26404,162.59023,-0.104,0.2255,51
0.6519,-0.5413,0.3417,-0.4063,13.351097,-83.84386,180.54843,163.2189,-0.0893,0.2338,51
0.6524,-0.5431,0.342,-0.4029,12.879365,-83.84404,180.83917,163.82281,-0.0776,0.2329,51
0.653,-0.5449,0.3421,-0.3992,12.381382,-83.829124,181.14774,164.4362,-0.0712,0.2358,51
0.6539,-0.5467,0.3423,-0.3953,11.868678,-83.78188,181.515,165.0759,-0.0766,0.2265,51
0.6549,-0.5484,0.3424,-0.3912,11.330254,-83.71308,181.91063,165.71729,-0.0825,0.2177,51
0.6561,-0.55,0.3424,-0.3868,10.785601,-83.61218,182.35214,166.36914,-0.0874,0.207,51
0.6575,-0.5515,0.3424,-0.3823,10.214099,-83.48375,182.83015,167.01729,-0.0805,0.1962,51
0.659,-0.553,0.3423,-0.3775,9.639372,-83.33906,183.34036,167.68752,-0.0727,0.1982,51
0.6607,-0.5544,0.3422,-0.3726,9.047266,-83.16714,183.88666,168.35371,-0.0659,0.1782,51
0.6624,-0.5558,0.3422,-0.3675,8.453702,-82.985466,184.47426,169.0587,-0.0581,0.1699,51
0.6641,-0.5571,0.3423,-0.3623,7.858175,-82.78901,185.0994,169.78162,-0.0498,0.1616,51
0.6658,-0.5584,0.3424,-0.357,7.2740235,-82.5877,185.74167,170.51662,-0.0517,0.164,51
0.6675,-0.5595,0.3428,-0.3517,6.6930103,-82.36177,186.44351,171.27335,-0.0502,0.1635,51
0.6691,-0.5607,0.3433,-0.3464,6.1350822,-82.14649,187.15167,172.05226,-0.0478,0.1611,51
0.6705,-0.5618,0.3439,-0.3412,5.6120105,-81.93623,187.86319,172.8309,-0.0502,0.1596,51
0.6718,-0.5628,0.3446,-0.3362,5.114722,-81.72713,188.57083,173.59064,-0.0522,0.1611,51
0.6729,-0.5639,0.3453,-0.3314,4.6659756,-81.54466,189.2422,174.33852,-0.0434,0.1621,51
0.674,-0.5647,0.3462,-0.3268,4.2363477,-81.33769,189.94064,175.06036,-0.0439,0.163,51
0.675,-0.5655,0.3472,-0.3222,3.2312837,-81.13215,190.65247,175.7968,-0.0419,0.163,51
0.6775,-0.5672,0.3513,-0.3093,3.2312837,-80.47764,192.87227,177.97498,-0.0532,0.1474,51
0.6775,-0.5672,0.3513,-0.3093,3.014642,-80.47764,192.87227,177.97498,-0.0532,0.1474,51
0.6782,-0.5677,0.3528,-0.3053,2.8728309,-80.26433,193.59784,178.67264,-0.062,0.1391,51
0.6788,-0.5681,0.3543,-0.3014,2.8102558,-80.05068,194.3159,179.35258,-0.0649,0.1445,51
0.6793,-0.5684,0.3558,-0.2976,2.8239152,-79.83677,195.02628,180.01501,-0.0698,0.1328,51
0.6798,-0.5687,0.3573,-0.294,2.8953433,-79.62809,195.71292,180.64803,-0.0668,0.1284,51
0.6802,-0.569,0.3589,-0.2906,3.0122743,-79.42784,196.38586,181.26854,-0.062,0.124,51
0.6805,-0.5693,0.3605,-0.2874,3.159907,-79.239624,197.03104,181.86581,-0.0839,0.1088,51
0.6807,-0.5696,0.362,-0.2844,3.3282983,-79.0673,197.63434,182.42953,-0.0815,0.0957,51
0.6808,-0.57,0.3636,-0.2815,3.4944847,-78.90708,198.23138,183.00154,-0.0849,0.0961,51
0.6807,-0.5704,0.3651,-0.2789,3.666846,-78.77366,198.76996,183.53386,-0.0859,0.0805,51
0.6805,-0.5709,0.3666,-0.2764,3.8239636,-78.65617,199.28853,184.06464,-0.0883,0.0668,51
0.6802,-0.5715,0.368,-0.2742,3.9751637,-78.56748,199.74564,184.55775,-0.0834,0.0698,51
0.6797,-0.5721,0.3695,-0.2722,4.120744,-78.49384,200.18597,185.04674,-0.0844,0.0571,51
0.6791,-0.5727,0.371,-0.2704,4.249857,-78.43315,200.59802,185.51524,-0.0898,0.0395,51
0.6784,-0.5732,0.3724,-0.2689,4.3551617,-78.386696,200.95908,185.9333,-0.0825,0.0625,51
0.6776,-0.5737,0.3739,-0.2678,4.4256907,-78.358765,201.2772,186.31589,-0.0917,0.0581,51
0.6768,-0.5742,0.3752,-0.2671,4.4737687,-78.356415,201.51184,186.62633,-0.0932,0.0654,51
0.6758,-0.5746,0.3765,-0.2667,4.4880114,-78.371254,201.70535,186.90419,-0.0952,0.0786,51
0.6747,-0.5751,0.3778,-0.2667,4.470808,-78.41737,201.83435,187.1447,-0.1054,0.0781,51
0.6735,-0.5755,0.379,-0.2671,4.42548,-78.484344,201.89513,187.3237,-0.1113,0.0756,51
0.6723,-0.5758,0.3801,-0.2679,4.1743813,-78.56672,201.88956,187.4346,-0.1069,0.0839,51
0.6686,-0.576,0.383,-0.2724,4.1743813,-78.88465,201.54524,187.41682,-0.1157,0.1103,51
0.6686,-0.576,0.383,-0.2724,4.067535,-78.88465,201.54524,187.41682,-0.1157,0.1103,51
0.6674,-0.5757,0.3839,-0.2747,3.9436567,-79.0029,201.32527,187.27325,-0.124,0.1162,51
0.6662,-0.5753,0.3846,-0.2774,3.8300464,-79.142044,201.02397,187.05096,-0.1352,0.102,51
0.6651,-0.5748,0.3853,-0.2805,3.7154129,-79.28727,200.67299,186.76309,-0.1552,0.0966,51
0.6641,-0.5741,0.3856,-0.2838,3.6124067,-79.439026,200.25139,186.38666,-0.1704,0.103,51
0.6631,-0.5734,0.3857,-0.2874,3.5246336,-79.613594,199.75879,185.95053,-0.1806,0.0874,51
0.6623,-0.5726,0.3854,-0.291,3.4459178,-79.78559,199.22351,185.45068,-0.1967,0.0766,51
0.6618,-0.5718,0.3847,-0.2948,3.3856807,-79.96491,198.61581,184.86115,-0.2011,0.0717,51
0.6615,-0.571,0.3836,-0.2985,3.3386896,-80.14229,197.9765,184.22676,-0.1967,0.0625,51
0.6613,-0.5702,0.382,-0.3022,3.3350585,-80.33149,197.27469,183.52982,-0.187,0.0488,51
0.6614,-0.5694,0.3802,-0.3058,3.353629,-80.50206,196.57516,182.80118,-0.1821,0.0429,51
0.6617,-0.5687,0.378,-0.3093,3.421263,-80.67467,195.84058,182.03316,-0.1694,0.0439,51
0.6622,-0.5679,0.3756,-0.3126,3.529765,-80.82086,195.12624,181.24545,-0.1513,0.0322,51
0.6627,-0.5672,0.3729,-0.3159,3.694693,-80.98025,194.36972,180.42845,-0.1313,0.0346,51
0.6634,-0.5665,0.37,-0.3192,3.9241257,-81.12763,193.60062,179.57256,-0.1132,0.0385,51
0.6641,-0.5658,0.3669,-0.3226,4.2176147,-81.27912,192.7976,178.67694,-0.1005,0.0468,51
0.6647,-0.5651,0.3637,-0.3261,4.5756717,-81.437035,191.97055,177.7584,-0.0761,0.0541,51
0.6654,-0.5643,0.3604,-0.3297,4.9819136,-81.579575,191.13606,176.79735,-0.0644,0.0639,51
0.6659,-0.5635,0.3572,-0.3334,5.4471645,-81.727875,190.30121,175.84195,-0.0385,0.0756,51
0.6664,-0.5627,0.354,-0.3374,5.961862,-81.87907,189.43684,174.84196,-0.019,0.0888,51
0.6667,-0.5617,0.351,-0.3416,6.523371,-82.02133,188.58775,173.83159,0.0029,0.0986,51
0.6668,-0.5606,0.3481,-0.3461,7.787303,-82.16927,187.72157,172.79239,0.0263,0.1123,51
0.6663,-0.5577,0.3434,-0.3562,8.4662,-82.44527,186.04774,170.67557,0.0634,0.1416,51
0.6657,-0.5559,0.3418,-0.3617,10.775273,-82.567276,185.28024,169.63763,0.0698,0.1621,51
0.6619,-0.5488,0.3399,-0.3807,11.599822,-82.93281,183.15399,166.5163,0.0405,0.1767,51
0.6602,-0.5461,0.34,-0.3875,12.444419,-83.053055,182.51314,165.50034,0.0205,0.1694,51
0.6583,-0.5432,0.3404,-0.3944,13.307613,-83.16755,181.91591,164.50386,0.0024,0.1806,51
0.6562,-0.5402,0.341,-0.4014,14.163944,-83.28694,181.34158,163.5212,0.0039,0.186,51
0.654,-0.5372,0.3418,-0.4083,15.008645,-83.40653,180.80934,162.58223,-0.0102,0.1757,51
0.6517,-0.5341,0.3428,-0.415,15.818923,-83.51614,180.33618,161.69376,-0.02,0.1767,51
0.6495,-0.5311,0.344,-0.4214,16.606709,-83.614334,179.92783,160.87523,-0.0449,0.1713,51
0.6472,-0.528,0.3455,-0.4275,20.395185,-83.70009,179.59764,160.13463,-0.0498,0.1552,51
0.6358,-0.5136,0.3515,-0.4563,21.141447,-84.184425,177.96603,156.54083,-0.1323,0.1606,51
0.6332,-0.5112,0.3522,-0.462,21.880524,-84.34997,177.5456,155.81122,-0.1357,0.165,51
0.6306,-0.509,0.3527,-0.4677,22.637808,-84.53338,177.09183,155.06888,-0.1308,0.1728,51
0.6278,-0.5068,0.353,-0.4735,23.38764,-84.73704,176.59914,154.29338,-0.1381,0.1831,51
0.625,-0.5048,0.3531,-0.4793,25.578478,-84.95782,176.0738,153.50433,-0.1406,0.1884,51
0.6165,-0.4991,0.3528,-0.4961,25.578478,-85.63612,174.49554,151.15327,-0.1577,0.1782,51
0.6165,-0.4991,0.3528,-0.4961,27.564154,-85.63612,174.49554,151.15327,-0.1577,0.1782,51
0.6095,-0.4939,0.3505,-0.5113,28.159456,-86.179474,172.96565,148.69185,-0.1748,0.163,51
0.6078,-0.4923,0.3491,-0.5159,28.708607,-86.29991,172.47542,147.82196,-0.1645,0.1572,51
0.6064,-0.4907,0.3475,-0.5201,29.256874,-86.38043,172.025,146.96185,-0.1606,0.1572,51
0.6051,-0.4894,0.3452,-0.5244,29.772446,-86.471954,171.47942,146.00006,-0.1479,0.1459,51
0.604,-0.4881,0.3428,-0.5284,30.257696,-86.53236,170.96902,145.05284,-0.1235,0.142,51
0.6032,-0.4869,0.3402,-0.5322,30.737028,-86.56213,170.47348,144.09671,-0.1064,0.1391,51
0.6024,-0.4857,0.3375,-0.5359,31.199638,-86.58191,169.98207,143.13623,-0.1005,0.142,51
0.6016,-0.4845,0.3348,-0.5394,31.657743,-86.59062,169.51169,142.19972,-0.081,0.1362,51
0.6008,-0.4834,0.3322,-0.5429,32.108418,-86.60206,169.0493,141.284,-0.0747,0.125,51
0.5999,-0.4823,0.3298,-0.5463,32.54609,-86.61704,168.6131,140.41318,-0.0683,0.1254,51
0.5989,-0.4813,0.3276,-0.5496,32.970318,-86.64543,168.19281,139.5944,-0.0732,0.1186,51
0.5978,-0.4804,0.3256,-0.5528,33.3463,-86.68843,167.78766,138.82764,-0.0688,0.121,51
0.5967,-0.4795,0.3242,-0.5556,33.693497,-86.73182,167.47293,138.20563,-0.0776,0.1166,51
0.5955,-0.4788,0.323,-0.5582,34.015224,-86.80021,167.1673,137.65622,-0.0795,0.1162,51
0.5943,-0.4782,0.3219,-0.5606,34.335693,-86.87454,166.87701,137.15451,-0.0629,0.1142,51
0.5929,-0.4777,0.321,-0.563,34.655197,-86.979,166.58417,136.69467,-0.0493,0.1372,51
0.5914,-0.4771,0.3206,-0.5654,35.25788,-87.09361,166.3452,136.30902,-0.0463,0.1499,51
0.5879,-0.4758,0.321,-0.5698,35.51776,-87.38129,165.98439,135.78494,-0.103,0.1733,51
0.5862,-0.4752,0.3217,-0.5717,35.72525,-87.53196,165.87074,135.64574,-0.1367,0.1723,51
0.5846,-0.4748,0.3225,-0.5732,35.87428,-87.68763,165.77817,135.58743,-0.165,0.184,51
0.5833,-0.4746,0.3233,-0.5743,35.954056,-87.826805,165.71217,135.5896,-0.2021,0.187,51
0.5823,-0.4747,0.3239,-0.5749,35.945953,-87.95227,165.64885,135.63934,-0.2099,0.2001,51
0.5817,-0.4752,0.3243,-0.5749,35.855724,-88.06146,165.59201,135.75412,-0.226,0.1992,51
0.5814,-0.4761,0.3244,-0.5743,35.68673,-88.16183,165.5241,135.91957,-0.2226,0.1987,51
0.5815,-0.4774,0.3243,-0.5732,35.416378,-88.24714,165.45767,136.13672,-0.2143,0.2036,51
0.5821,-0.4791,0.324,-0.5714,34.700115,-88.30502,165.41261,136.42902,-0.2026,0.1982,51
0.5842,-0.4832,0.3226,-0.5665,34.251926,-88.361115,165.32533,137.08092,-0.145,0.2109,51
0.5857,-0.4855,0.3219,-0.5634,33.7656,-88.35885,165.33403,137.49939,-0.1171,0.2133,51
0.5873,-0.4879,0.3213,-0.56,33.25243,-88.353485,165.37158,137.97879,-0.0917,0.2211,51
0.5889,-0.4904,0.3209,-0.5564,32.71895,-88.35743,165.43507,138.5249,-0.0761,0.2211,51
0.5905,-0.4929,0.3206,-0.5526,32.222813,-88.35994,165.52487,139.11426,-0.0478,0.2397,51
0.592,-0.4954,0.3201,-0.5491,31.70768,-88.37267,165.57208,139.63464,-0.0327,0.2436,51
0.5933,-0.4979,0.32,-0.5454,31.180025,-88.40713,165.66043,140.25227,-0.0234,0.2426,51
0.5947,-0.5002,0.3203,-0.5416,30.645012,-88.41853,165.82826,140.93188,-0.0141,0.2495,51
0.596,-0.5023,0.3211,-0.5377,30.082363,-88.42574,166.0707,141.6945,-0.0073,0.2348,51
0.5973,-0.5044,0.3223,-0.5336,29.498112,-88.43176,166.37459,142.54832,-0.0229,0.2207,51
0.5985,-0.5065,0.3238,-0.5293,28.870354,-88.44284,166.7229,143.47974,-0.0405,0.1894,51
0.5997,-0.5088,0.3256,-0.5247,28.193699,-88.463005,167.11374,144.51343,-0.06,0.1645,51
0.6009,-0.5113,0.3275,-0.5197,26.723808,-88.48669,167.53522,145.63072,-0.0639,0.1562,51
0.6031,-0.5173,0.3311,-0.5088,25.919119,-88.59327,168.35013,148.03436,-0.0766,0.1303,51
0.6041,-0.5209,0.3327,-0.5028,25.044847,-88.68032,168.73494,149.32796,-0.082,0.1162,51
0.6053,-0.5249,0.3342,-0.4963,24.092714,-88.76231,169.14453,150.69702,-0.0776,0.1166,51
0.6066,-0.5292,0.3354,-0.4891,23.05998,-88.83501,169.5775,152.13408,-0.062,0.1059,51
0.6082,-0.5339,0.3364,-0.4813,21.956827,-88.89077,170.0495,153.64067,-0.0449,0.1054,51
0.61,-0.5389,0.3371,-0.4729,20.781658,-88.93065,170.55481,155.19781,-0.0273,0.104,51
0.6122,-0.544,0.3376,-0.4639,19.558203,-88.92118,171.14487,156.79626,-0.0014,0.1118,51
0.6145,-0.5491,0.338,-0.4544,18.28168,-88.88171,171.81133,158.44344,0.0258,0.1147,51
0.6172,-0.5541,0.3381,-0.4444,16.979336,-88.78177,172.56813,160.08595,0.0439,0.1215,51
0.62,-0.559,0.3382,-0.4341,15.636157,-88.64875,173.41037,161.75594,0.061,0.1289,51
0.6231,-0.5637,0.3383,-0.4234,14.277376,-88.45544,174.37593,163.44804,0.0791,0.1464,51
0.6265,-0.5681,0.3383,-0.4125,12.898953,-88.20221,175.44115,165.11069,0.0859,0.1582,51
0.6301,-0.5721,0.3382,-0.4013,11.51629,-87.887505,176.61624,166.75505,0.0996,0.1694,51
0.634,-0.5757,0.3381,-0.39,10.132992,-87.50852,177.89734,168.3615,0.1162,0.1718,51
0.6383,-0.5787,0.3379,-0.3786,8.741877,-87.04594,179.28964,169.89464,0.1127,0.1806,51
0.6428,-0.5812,0.3378,-0.367,7.357549,-86.51583,180.8026,171.41505,0.1123,0.1762,51
0.6477,-0.5831,0.3377,-0.3553,5.996632,-85.902,182.42538,172.87564,0.1137,0.1674,51
0.6528,-0.5846,0.3377,-0.3435,4.685156,-85.232796,184.13432,174.31583,0.1118,0.1386,51
0.658,-0.5856,0.3378,-0.3315,3.5067835,-84.50426,185.93602,175.74748,0.103,0.1191,51
0.6633,-0.5861,0.3381,-0.3194,2.685606,-83.71657,187.8237,177.16873,0.1035,0.0957,51
0.6686,-0.5863,0.3385,-0.3074,2.5529969,-82.902275,189.73021,178.5585,0.1005,0.0747,51
0.6738,-0.5861,0.3391,-0.2956,3.1533866,-82.06099,191.65079,179.91365,0.0986,0.0581,51
0.6788,-0.5855,0.3398,-0.2842,5.1740007,-81.210266,193.53375,181.20068,0.0898,0.0605,51
0.6878,-0.5838,0.3419,-0.2629,6.228302,-79.55809,197.13387,183.64622,0.0878,0.062,51
0.6917,-0.5826,0.3432,-0.2533,7.226069,-78.77046,198.79802,184.75223,0.0976,0.0683,51
0.6951,-0.5814,0.3448,-0.2444,8.141594,-78.02757,200.37833,185.81627,0.1005,0.0776,51
0.6981,-0.5799,0.3467,-0.2364,8.940227,-77.30802,201.86784,186.78604,0.1025,0.0859,51
0.7006,-0.5786,0.3486,-0.2295,9.643875,-76.677925,203.17445,187.64456,0.1083,0.0908,51
0.7026,-0.5771,0.351,-0.2234,10.264812,-76.07295,204.4338,188.45595,0.1196,0.0917,51
0.7041,-0.5754,0.354,-0.218,10.826586,-75.48355,205.67697,189.2417,0.1083,0.0903,51
0.7053,-0.5736,0.3576,-0.2132,11.334143,-74.9006,206.91705,190.00735,0.0937,0.0864,51
0.7061,-0.5715,0.3618,-0.209,11.854423,-74.313225,208.16374,190.7442,0.0698,0.0913,51
0.7067,-0.5692,0.3667,-0.2049,12.331018,-73.689,209.49539,191.51665,0.0405,0.0844,51
0.707,-0.5668,0.3717,-0.2014,12.776142,-73.09097,210.75749,192.21886,0.0092,0.0844,51
0.7071,-0.5644,0.3768,-0.1984,13.210083,-72.51746,211.96098,192.86504,-0.02,0.0727,51
0.7071,-0.562,0.3818,-0.1957,13.631985,-71.963165,213.10544,193.4582,-0.0585,0.0644,51
0.7071,-0.5595,0.3865,-0.1933,14.049214,-71.42561,214.16702,193.97069,-0.0732,0.0625,51
0.7073,-0.557,0.3908,-0.1911,14.463282,-70.90365,215.13977,194.40306,-0.0937,0.0654,51
0.7077,-0.5545,0.3946,-0.189,14.86247,-70.398285,216.02296,194.76218,-0.1201,0.0693,51
0.7083,-0.552,0.398,-0.1871,15.266849,-69.91129,216.81718,195.0461,-0.1147,0.0668,51
0.7091,-0.5494,0.401,-0.1852,16.382158,-69.42513,217.552,195.27426,-0.1303,0.0571,51
0.7129,-0.5415,0.4073,-0.1804,17.499937,-68.069756,219.22215,195.53372,-0.1162,0.0712,51
0.7193,-0.5305,0.4117,-0.1777,17.712172,-66.55827,220.37875,195.02567,-0.1455,0.0639,51
0.7208,-0.5278,0.4125,-0.1777,17.907799,-66.23967,220.53978,194.80879,-0.1591,0.0629,51
0.7222,-0.5251,0.4133,-0.1779,18.094727,-65.93628,220.67781,194.57513,-0.1655,0.0454,51
0.7237,-0.5223,0.4142,-0.1784,18.27137,-65.63199,220.79352,194.30125,-0.1918,0.0336,51
0.725,-0.5195,0.4151,-0.179,18.399612,-65.34192,220.90157,194.02815,-0.205,0.0112,51
0.7259,-0.5171,0.416,-0.1798,18.496014,-65.112526,220.98228,193.7821,-0.2275,0.0014,51
0.7266,-0.5149,0.4171,-0.1809,18.543709,-64.91553,221.05246,193.53947,-0.2519,-0.0151,51
0.7271,-0.513,0.4181,-0.1823,18.561378,-64.7724,221.0701,193.28668,-0.2846,-0.0297,51
0.7276,-0.511,0.4189,-0.1841,18.497,-64.65177,221.0195,192.96725,-0.3198,-0.0385,51
0.7279,-0.5094,0.4193,-0.1864,18.330566,-64.61672,220.85162,192.60101,-0.3466,-0.0507,51
0.728,-0.5082,0.4192,-0.1894,18.073084,-64.681915,220.53014,192.1575,-0.372,-0.0522,51
0.7279,-0.5073,0.4187,-0.1931,17.705778,-64.83423,220.07048,191.63582,-0.3735,-0.0385,51
0.7275,-0.5069,0.4179,-0.1976,17.254635,-65.094765,219.4674,191.0487,-0.3842,-0.0102,51
0.7267,-0.5069,0.4168,-0.2026,16.764523,-65.44356,218.75787,190.42856,-0.3793,0.0004,51
0.7256,-0.5071,0.4157,-0.2079,16.198015,-65.83656,218.00652,189.79965,-0.3847,-0.0019,51
0.7242,-0.5077,0.4145,-0.2138,15.584768,-66.30984,217.15471,189.13242,-0.4038,-0.0097,51
0.7225,-0.5086,0.4132,-0.22,14.917545,-66.83945,216.23766,188.45459,-0.4194,-0.0039,51
0.7207,-0.5096,0.4115,-0.2268,14.184531,-67.426384,215.18314,187.68274,-0.435,-0.0004,51
0.7186,-0.5109,0.4094,-0.2341,11.49961,-68.090485,213.99324,186.85033,-0.4414,0.0161,51
0.7102,-0.5173,0.4001,-0.2603,10.421268,-70.69241,209.28748,183.81105,-0.4331,0.1704,51
0.7065,-0.5208,0.3954,-0.2702,9.30965,-71.81912,207.24014,182.62674,-0.4116,0.2304,51
0.7026,-0.5251,0.3899,-0.28,8.259962,-73.034485,205.01833,181.42125,-0.3603,0.3022,51
0.6988,-0.5296,0.3836,-0.2897,7.284853,-74.27001,202.65549,180.12843,-0.2768,0.3535,51
0.695,-0.5346,0.3764,-0.2989,6.501673,-75.53792,200.1713,178.80551,-0.1977,0.3896,51
0.6915,-0.5397,0.3685,-0.3075,5.935152,-76.77385,197.63847,177.43283,-0.0917,0.4248,51
0.688,-0.545,0.361,-0.3148,5.737037,-77.942764,195.28294,176.23569,0.0141,0.4614,51
0.6854,-0.5494,0.3535,-0.3212,5.7830553,-78.928314,193.10721,175.0056,0.0888,0.4863,51
0.6834,-0.5531,0.3469,-0.3263,5.978419,-79.72785,191.27164,173.93385,0.0981,0.5024,51
0.6823,-0.5562,0.3407,-0.33,6.3385396,-80.34317,189.7341,172.98256,0.0722,0.4824,51
0.6822,-0.5586,0.3341,-0.3329,6.790708,-80.801125,188.3308,171.97491,0.0751,0.4663,51
0.6831,-0.5605,0.3272,-0.3347,7.350574,-81.10317,187.10243,170.98254,0.1503,0.4565,51
0.6847,-0.5617,0.3202,-0.3361,7.9769835,-81.27181,185.9929,169.94319,0.2753,0.4907,51
0.6865,-0.5621,0.3138,-0.3378,8.587022,-81.342224,184.99757,168.87013,0.3754,0.52,51
0.6875,-0.5619,0.3088,-0.3406,9.175756,-81.41587,184.07004,167.81105,0.4516,0.5258,51
0.6874,-0.5612,0.3054,-0.3451,9.759951,-81.54148,183.14902,166.7266,0.4584,0.5195,51
0.6859,-0.5601,0.3036,-0.3515,10.393192,-81.75966,182.19199,165.60591,0.4428,0.4892,51
0.6828,-0.5585,0.3035,-0.36,11.124841,-82.086235,181.18657,164.4359,0.3969,0.4301,51
0.6784,-0.5564,0.3049,-0.3701,12.003888,-82.493324,180.17662,163.25243,0.3134,0.3623,51
0.673,-0.5539,0.3074,-0.3814,13.013133,-82.96524,179.16177,162.05923,0.228,0.2832,51
0.6671,-0.5511,0.3107,-0.3932,14.129083,-83.46051,178.19907,160.9071,0.1245,0.2055,51
0.6609,-0.5478,0.3145,-0.405,17.733099,-83.93972,177.32916,159.80853,0.0292,0.144,51
0.6442,-0.5368,0.3242,-0.4377,17.733099,-85.11377,175.07088,156.55176,-0.1323,0.0634,51
0.6442,-0.5368,0.3242,-0.4377,18.968994,-85.11377,175.07088,156.55176,-0.1323,0.0634,51
0.6396,-0.5328,0.326,-0.4478,20.14596,-85.39474,174.35063,155.3252,-0.1503,0.06,51
0.6355,-0.5288,0.3275,-0.4572,21.292328,-85.61975,173.71648,154.13455,-0.1503,0.0576,51
0.6317,-0.5248,0.3287,-0.4662,22.378492,-85.81122,173.12556,152.9454,-0.1557,0.0371,51
0.628,-0.521,0.3297,-0.4746,23.417849,-85.99714,172.57323,151.81958,-0.1679,0.0224,51
0.6244,-0.5175,0.3305,-0.4826,24.405537,-86.19019,172.03069,150.73671,-0.1918,0.0068,51
0.6211,-0.5141,0.3309,-0.4901,25.324495,-86.35357,171.51431,149.659,-0.2089,0.0019,51
0.618,-0.5112,0.3309,-0.4971,26.17423,-86.52815,170.97911,148.61726,-0.2368,-0.0009,51
0.6152,-0.5085,0.3305,-0.5035,26.931828,-86.67709,170.46536,147.59921,-0.2416,-0.0107,51
0.6128,-0.5062,0.3297,-0.5092,27.621115,-86.80533,169.96805,146.62848,-0.2495,-0.0097,51
0.6108,-0.5042,0.3285,-0.5144,28.219458,-86.90735,169.47902,145.6707,-0.2426,-0.0122,51
0.6091,-0.5026,0.327,-0.5189,28.750824,-86.99658,169.0047,144.77759,-0.2221,-0.0053,51
0.6076,-0.5013,0.3254,-0.5229,29.24084,-87.079,168.55118,143.94902,-0.1967,0.0112,51
0.6062,-0.5002,0.3238,-0.5266,29.679243,-87.160126,168.11461,143.16972,-0.1586,0.0317,51
0.6048,-0.4993,0.3224,-0.5299,30.09272,-87.25039,167.71371,142.48706,-0.1347,0.0473,51
0.6032,-0.4985,0.3214,-0.533,30.490871,-87.36682,167.34778,141.90448,-0.1074,0.0673,51
0.6016,-0.4976,0.3209,-0.536,30.87589,-87.47847,167.05383,141.40607,-0.1118,0.0805,51
0.5998,-0.4968,0.3207,-0.5389,31.244143,-87.61913,166.77528,140.98015,-0.1215,0.0961,51
0.5979,-0.4959,0.3208,-0.5416,31.572554,-87.76171,166.54443,140.62386,-0.1372,0.1235,51
0.5961,-0.4952,0.3213,-0.5441,31.83011,-87.91526,166.35854,140.37009,-0.1606,0.1269,51
0.5945,-0.4946,0.3219,-0.546,31.98187,-88.05144,166.22838,140.2143,-0.1831,0.123,51
0.5932,-0.4941,0.3232,-0.5471,32.053516,-88.16658,166.23547,140.27724,-0.1782,0.1333,51
0.5911,-0.4941,0.3262,-0.5476,31.959461,-88.41314,166.3422,140.75409,-0.1992,0.1137,51
0.5903,-0.4947,0.3279,-0.5469,31.833088,-88.54949,166.43909,141.1889,-0.1972,0.1103,51
0.5896,-0.4958,0.3289,-0.546,31.619913,-88.704994,166.43726,141.57187,-0.1943,0.125,51
0.5894,-0.4972,0.3297,-0.5445,31.338764,-88.82535,166.46614,142.00998,-0.1699,0.1367,51
0.5896,-0.4987,0.3305,-0.5425,31.007217,-88.906784,166.55211,142.5101,-0.1489,0.1826,51
0.5899,-0.5005,0.331,-0.5401,30.641558,-88.992516,166.61469,143.0343,-0.1176,0.1909,51
0.5904,-0.5025,0.3314,-0.5375,30.266684,-89.07053,166.68002,143.57791,-0.0903,0.225,51
0.5909,-0.5045,0.3318,-0.5348,29.90862,-89.1453,166.7548,144.13557,-0.0649,0.2568,51
0.5913,-0.5064,0.3323,-0.5322,29.565725,-89.2221,166.8373,144.69281,-0.0385,0.2856,51
0.5916,-0.5082,0.333,-0.5297,28.583881,-89.30137,166.93791,145.2659,-0.0253,0.2963,51
0.5918,-0.5126,0.3375,-0.5223,28.193022,-89.51916,167.54248,147.31529,-0.0424,0.2314,51
0.5919,-0.514,0.3401,-0.5193,27.751064,-89.56665,167.91801,148.24213,-0.0747,0.1904,51
0.5919,-0.5156,0.3428,-0.5158,25.101301,-89.62113,168.3205,149.27174,-0.101,0.1391,51
0.5952,-0.525,0.3533,-0.4951,24.252672,-89.53485,170.53073,154.31908,-0.0541,0.0981,51
0.5971,-0.528,0.3547,-0.4886,23.347406,-89.422745,171.12598,155.56012,-0.0122,0.1206,51
0.5994,-0.5311,0.3556,-0.4817,21.42855,-89.272255,171.7425,156.76256,0.0112,0.1479,51
0.6048,-0.5373,0.3566,-0.4671,20.39911,-88.87686,173.08127,159.1037,0.059,0.1909,51
0.6079,-0.5402,0.3572,-0.4592,19.340971,-88.6051,173.90154,160.32878,0.0683,0.1762,51
0.6112,-0.5428,0.358,-0.451,18.243654,-88.276855,174.84096,161.58524,0.082,0.1684,51
0.6147,-0.5451,0.3592,-0.4424,10.938209,-87.88443,175.93568,162.91386,0.08,0.1425,51
0.6374,-0.5562,0.3712,-0.3825,9.724067,-84.63184,184.9441,172.14693,0.0634,0.0917,51
0.6411,-0.5579,0.3729,-0.3721,8.566684,-84.04419,186.55624,173.65004,0.0751,0.0952,51
0.6448,-0.5593,0.3746,-0.3619,7.4839664,-83.43319,188.18762,175.09053,0.0766,0.1186,51
0.6484,-0.5603,0.3762,-0.3519,6.519173,-82.80247,189.82074,176.45558,0.0722,0.1308,51
0.6519,-0.5611,0.3779,-0.3424,5.7035723,-82.173676,191.42352,177.74574,0.0673,0.1533,51
0.6551,-0.5616,0.3798,-0.3333,5.075231,-81.54537,193.01518,178.99098,0.0737,0.1621,51
0.658,-0.5619,0.3814,-0.3251,4.646146,-80.965324,194.45018,180.07784,0.0634,0.1708,51
0.6606,-0.562,0.3832,-0.3174,4.4400215,-80.39885,195.84802,181.11673,0.0571,0.1743,51
0.6629,-0.5619,0.3852,-0.3103,4.4372764,-79.850334,197.19394,182.09465,0.0751,0.1582,51
0.6649,-0.5616,0.3873,-0.3037,4.6265397,-79.31926,198.48691,183.01413,0.0708,0.1503,51
0.6668,-0.5611,0.3897,-0.2975,5.040413,-78.78084,199.77472,183.89597,0.0805,0.1381,51
0.6686,-0.56,0.3928,-0.2913,5.573941,-78.169235,201.19148,184.8004,0.08,0.1362,51
0.6702,-0.5587,0.3962,-0.2855,6.820862,-77.55499,202.59676,185.6697,0.0615,0.1215,51
0.673,-0.5554,0.4034,-0.2751,7.478168,-76.32149,205.31137,187.23189,0.0117,0.102,51
0.6743,-0.5535,0.407,-0.2703,8.127477,-75.70405,206.61562,187.93263,-0.0273,0.0839,51
0.6758,-0.5514,0.4104,-0.2659,8.768295,-75.086075,207.84312,188.52623,-0.0502,0.0766,51
0.6774,-0.5492,0.4135,-0.2615,9.380902,-74.46586,209.02693,189.06935,-0.0659,0.0532,51
0.6791,-0.547,0.4162,-0.2572,9.990546,-73.86153,210.1329,189.55066,-0.0874,0.0488,51
0.6811,-0.5447,0.4187,-0.253,10.597171,-73.24687,211.19464,189.96873,-0.102,0.0537,51
0.6832,-0.5422,0.4209,-0.2488,11.174408,-72.62476,212.21371,190.3348,-0.103,0.0458,51
0.6856,-0.5396,0.4227,-0.2449,13.270736,-72.01385,213.13014,190.60092,-0.1118,0.0458,51
0.6959,-0.5291,0.427,-0.2308,13.736774,-69.74185,216.07208,191.1916,-0.1147,0.0312,51
0.6985,-0.5265,0.4275,-0.2278,14.181356,-69.229515,216.62906,191.23415,-0.1191,0.0361,51
0.7011,-0.5239,0.428,-0.2252,14.610266,-68.739006,217.12389,191.23097,-0.1196,0.0332,51
0.7035,-0.5212,0.4285,-0.2229,15.016747,-68.26666,217.57707,191.19902,-0.1152,0.0263,51
0.7057,-0.5186,0.429,-0.2208,15.393784,-67.8224,217.99477,191.1642,-0.1293,0.02,51
0.7079,-0.5161,0.4294,-0.219,15.759406,-67.40669,218.35071,191.09546,-0.1542,0.0136,51
0.7099,-0.5137,0.4299,-0.2173,16.059057,-67.009186,218.69986,191.04239,-0.1665,0.0024,51
0.7116,-0.5116,0.4302,-0.216,16.302513,-66.67991,218.96065,190.96814,-0.1748,-0.0009,51
0.7131,-0.5098,0.4303,-0.215,16.506845,-66.40863,219.14629,190.87848,-0.1831,-0.0166,51
0.7144,-0.5081,0.4304,-0.2144,16.7819,-66.176285,219.28027,190.7615,-0.186,-0.019,51
0.7165,-0.5048,0.4306,-0.2149,16.82841,-65.834785,219.34442,190.36687,-0.1894,-0.0043,51
0.717,-0.5034,0.4308,-0.2161,16.795473,-65.75662,219.27454,190.11493,-0.206,0.0087,51
0.7173,-0.5021,0.4308,-0.2182,16.67102,-65.75263,219.0713,189.76253,-0.2124,0.0292,51
0.7172,-0.5011,0.4306,-0.2211,16.450138,-65.84243,218.74162,189.34589,-0.227,0.0629,51
0.7167,-0.5005,0.4303,-0.2249,16.178717,-66.034935,218.28128,188.86655,-0.2475,0.0727,51
0.7159,-0.5001,0.4298,-0.2291,15.834695,-66.28648,217.74158,188.35556,-0.2426,0.1,51
0.7147,-0.5001,0.4292,-0.2339,15.439706,-66.62437,217.10208,187.81537,-0.2548,0.1093,51
0.713,-0.5005,0.4287,-0.2391,15.020759,-67.034966,216.4099,187.28896,-0.2563,0.1206,51
0.711,-0.5011,0.4283,-0.2447,14.560256,-67.4928,215.66838,186.75153,-0.2583,0.1328,51
0.7085,-0.5019,0.4278,-0.2508,14.058596,-68.021324,214.8368,186.18724,-0.2636,0.1552,51
0.7055,-0.5031,0.4274,-0.2575,13.517658,-68.63408,213.91435,185.6137,-0.2553,0.1787,51
0.702,-0.5046,0.4269,-0.265,12.918986,-69.34151,212.848,184.98483,-0.25,0.2539,51
0.6977,-0.5065,0.4261,-0.2736,12.289901,-70.19055,211.55896,184.27222,-0.2495,0.3178,51
0.6928,-0.509,0.425,-0.2831,11.662569,-71.176025,210.04944,183.50179,-0.25,0.4125,51
0.6874,-0.512,0.4233,-0.2931,11.06986,-72.27557,208.32391,182.68146,-0.2529,0.4672,51
0.6818,-0.5155,0.4209,-0.3033,10.574981,-73.460625,206.40239,181.81758,-0.2495,0.4887,51
0.6769,-0.5189,0.4175,-0.3132,10.176763,-74.61784,204.36311,180.83984,-0.2377,0.4951,51
0.6726,-0.5222,0.4134,-0.3221,9.888724,-75.70483,202.34718,179.859,-0.2001,0.4824,51
0.6691,-0.5253,0.4091,-0.3299,9.709123,-76.67744,200.45921,178.91275,-0.1508,0.476,51
0.6667,-0.5277,0.4049,-0.3361,9.539663,-77.444305,198.86026,178.03918,-0.1298,0.4545,51
0.6656,-0.5296,0.4004,-0.3406,9.30986,-78.01789,197.51627,177.21782,-0.1152,0.4453,51
0.6652,-0.5316,0.396,-0.3433,9.068003,-78.4651,196.43481,176.58804,-0.0981,0.4526,51
0.6659,-0.5332,0.391,-0.3452,8.739797,-78.78929,195.44833,175.89174,-0.04,0.4086,51
0.6692,-0.5353,0.3789,-0.349,8.732052,-79.26379,193.36508,174.05179,0.0864,0.3701,51
0.671,-0.5361,0.3724,-0.3515,8.895733,-79.48791,192.22377,172.96262,0.1337,0.3671,51
0.6723,-0.5366,0.3659,-0.3549,9.231459,-79.74004,190.98149,171.74908,0.1635,0.3676,51
0.6727,-0.5371,0.36,-0.3595,9.778367,-80.06617,189.64543,170.47874,0.1791,0.3696,51
0.672,-0.5374,0.3544,-0.3657,10.492121,-80.48594,188.13637,169.0552,0.1772,0.3496,51
0.6702,-0.5376,0.3499,-0.3732,11.345642,-80.98003,186.58856,167.61646,0.1728,0.3286,51
0.6672,-0.5375,0.3466,-0.3817,12.30984,-81.53285,185.05626,166.20691,0.1601,0.2944,51
0.6632,-0.537,0.3446,-0.3909,13.354793,-82.11673,183.6002,164.86778,0.1044,0.2358,51
0.6585,-0.5363,0.3437,-0.4006,14.479693,-82.728874,182.2149,163.60811,0.0556,0.1899,51
0.6534,-0.5352,0.3432,-0.4106,15.645802,-83.33885,180.86467,162.34276,0.0063,0.1523,51
0.6482,-0.5339,0.3431,-0.4207,16.818901,-83.93554,179.57507,161.10234,-0.0336,0.1147,51
0.6431,-0.5322,0.343,-0.4305,17.977322,-84.48158,178.36826,159.86606,-0.0776,0.0795,51
0.6384,-0.5303,0.3428,-0.44,19.088852,-84.97023,177.23874,158.62173,-0.1186,0.0532,51
0.6341,-0.5281,0.3425,-0.4489,20.136116,-85.38426,176.22624,157.40233,-0.1503,0.0336,51
0.6304,-0.5258,0.342,-0.4572,21.13158,-85.72371,175.31662,156.19981,-0.1733,0.0175,51
0.6271,-0.5234,0.3413,-0.465,22.07226,-86.00654,174.48567,155.00891,-0.1791,0.0161,51
0.6241,-0.521,0.3404,-0.4723,22.986202,-86.24843,173.71622,153.84087,-0.1801,0.041,51
0.6212,-0.5188,0.3392,-0.4794,23.882555,-86.48972,172.9364,152.66287,-0.1816,0.0439,51
0.6183,-0.5166,0.3379,-0.4863,24.75594,-86.721176,172.17886,151.49295,-0.1674,0.0517,51
0.6152,-0.5146,0.3367,-0.493,25.601112,-86.97665,171.4316,150.38289,-0.1596,0.0605,51
0.6122,-0.5127,0.3356,-0.4995,26.414047,-87.22298,170.72519,149.31476,-0.1611,0.0668,51
0.6093,-0.5108,0.3345,-0.5057,27.932287,-87.4501,170.064,148.28003,-0.164,0.062,51
0.6036,-0.5074,0.3323,-0.5172,28.630602,-87.899445,168.81802,146.34792,-0.142,0.0839,51
0.6009,-0.5059,0.3314,-0.5225,29.285057,-88.115005,168.25937,145.47902,-0.1401,0.0727,51
0.5983,-0.5044,0.3306,-0.5274,29.904158,-88.31231,167.75696,144.67406,-0.1396,0.0781,51
0.5959,-0.5028,0.33,-0.532,30.484463,-88.47725,167.3302,143.92561,-0.1333,0.0971,51
0.5936,-0.5013,0.3295,-0.5363,31.014082,-88.63549,166.93997,143.23628,-0.1298,0.104,51
0.5913,-0.5,0.3292,-0.5402,31.456667,-88.80452,166.584,142.64648,-0.1406,0.1191,51
0.5892,-0.4987,0.3296,-0.5434,31.845434,-88.9501,166.36713,142.25694,-0.1479,0.1284,51
0.587,-0.4977,0.3304,-0.5462,32.18278,-89.12828,166.18259,142.01208,-0.1391,0.1269,51
0.5848,-0.4968,0.3318,-0.5486,32.434227,-89.315285,166.0767,141.92781,-0.1464,0.1269,51
0.5827,-0.4961,0.3337,-0.5503,32.675507,-89.50324,166.05557,142.0328,-0.142,0.1293,51
0.5805,-0.4956,0.3355,-0.5519,32.83282,-89.71445,166.00201,142.15619,-0.1557,0.1132,51
0.5785,-0.4955,0.3375,-0.5529,32.930523,-89.930885,165.98381,142.41919,-0.1582,0.1054,51
0.5755,-0.496,0.3413,-0.5533,32.89709,-90.2925,166.04198,143.15068,-0.1645,0.1557,51
0.5743,-0.4967,0.3428,-0.5529,32.816628,-90.46536,166.04912,143.55693,-0.143,0.1948,51
0.5734,-0.4976,0.3441,-0.5522,32.70513,-90.61773,166.06097,143.9755,-0.1264,0.2343,51
0.5726,-0.4987,0.3454,-0.5513,32.532936,-90.77136,166.07475,144.43434,-0.1088,0.2539,51
0.572,-0.4999,0.3468,-0.5499,32.304226,-90.902626,166.13927,144.97772,-0.1069,0.2504,51
0.5716,-0.5013,0.3484,-0.5481,32.00131,-91.021095,166.24956,145.61678,-0.1,0.2314,51
0.5714,-0.5029,0.3501,-0.5457,31.646923,-91.121,166.41017,146.36118,-0.0952,0.2026,51
0.5712,-0.5048,0.3521,-0.5429,31.21927,-91.23183,166.60281,147.23505,-0.0917,0.1806,51
0.5712,-0.5069,0.3542,-0.5395,30.195498,-91.32049,166.85019,148.21394,-0.0844,0.1591,51
0.572,-0.5117,0.3582,-0.5315,29.627167,-91.42368,167.44286,150.31041,-0.0498,0.1665,51
0.5728,-0.5142,0.3599,-0.5271,29.023132,-91.42832,167.77599,151.3496,-0.0356,0.1865,51
0.5738,-0.5167,0.3614,-0.5224,28.383562,-91.40266,168.13846,152.38445,-0.0263,0.1933,51
0.5751,-0.5193,0.3627,-0.5175,27.68689,-91.34903,168.52301,153.40396,-0.017,0.2031,51
0.5769,-0.5218,0.3637,-0.5122,26.925205,-91.23114,168.97333,154.38983,-0.0195,0.1904,51
0.5792,-0.5241,0.365,-0.5064,26.099222,-91.03269,169.57545,155.44254,-0.0151,0.1928,51
0.582,-0.5262,0.3663,-0.5001,25.208946,-90.757034,170.2993,156.51212,-0.0327,0.1674,51
0.5851,-0.5281,0.3677,-0.4932,24.239035,-90.41712,171.1496,157.6387,-0.0312,0.1469,51
0.5886,-0.5301,0.3694,-0.4857,23.204947,-90.02347,172.13345,158.87094,-0.0532,0.1215,51
0.5923,-0.5323,0.3708,-0.4777,22.105675,-89.61275,173.14972,160.1224,-0.0693,0.0844,51
0.5961,-0.5346,0.3722,-0.4691,20.919205,-89.17708,174.24678,161.45009,-0.0771,0.0571,51
0.6003,-0.5372,0.3734,-0.4599,19.647121,-88.71063,175.41248,162.82202,-0.0834,0.0405,51
0.6047,-0.54,0.3742,-0.45,18.270395,-88.22354,176.6285,164.22734,-0.0747,0.0361,51
0.6096,-0.5429,0.3748,-0.4393,16.811844,-87.67735,177.96695,165.68224,-0.0615,0.0327,51
0.6149,-0.5459,0.375,-0.428,15.298184,-87.09275,179.37575,167.13889,-0.0278,0.0366,51
0.6204,-0.5488,0.3749,-0.4162,13.754846,-86.472435,180.85768,168.59593,-0.0014,0.0576,51
0.6261,-0.5515,0.3746,-0.4041,12.20791,-85.814384,182.40909,170.03363,0.0263,0.0708,51
0.6319,-0.554,0.3741,-0.3919,10.699531,-85.13441,183.99463,171.43298,0.0478,0.0761,51
0.6378,-0.556,0.3738,-0.3798,9.254224,-84.40635,185.6603,172.79587,0.06,0.1079,51
0.6435,-0.5576,0.3736,-0.3679,7.89002,-83.66587,187.34593,174.12225,0.0776,0.1157,51
0.6489,-0.5588,0.3736,-0.3562,6.6848264,-82.916016,189.05402,175.4301,0.0981,0.1367,51
0.654,-0.5597,0.3736,-0.3454,4.9166136,-82.19856,190.6558,176.60992,0.1269,0.1591,51
0.6627,-0.56,0.3752,-0.326,4.4722843,-80.78033,193.81628,178.82869,0.1796,0.1704,51
0.6662,-0.5594,0.3771,-0.3175,4.3917704,-80.07642,195.39542,179.8888,0.2001,0.164,51
0.6693,-0.5582,0.3799,-0.3098,4.661534,-79.34901,197.00919,180.91144,0.1826,0.1611,51
0.672,-0.5564,0.3838,-0.3022,5.216423,-78.5573,198.77771,182.00275,0.1708,0.1459,51
0.6744,-0.5541,0.3884,-0.2952,5.9343023,-77.73736,200.57463,183.05096,0.1435,0.1333,51
0.6764,-0.5515,0.3934,-0.2887,6.7747746,-76.91678,202.35588,184.05647,0.1152,0.1166,51
0.6783,-0.5485,0.3988,-0.2826,7.6549935,-76.06514,204.14803,185.00412,0.0776,0.0971,51
0.6799,-0.5453,0.4043,-0.277,8.584923,-75.226906,205.87868,185.87941,0.0473,0.083,51
0.6814,-0.5418,0.41,-0.2716,9.497449,-74.36468,207.6116,186.70934,0.0263,0.0756,51
0.6828,-0.5383,0.4156,-0.2667,11.269183,-73.530136,209.24777,187.45293,0.0078,0.062,51
0.6852,-0.531,0.4263,-0.2579,12.1153345,-71.91543,212.28761,188.72002,-0.0312,0.0556,51
0.6864,-0.5273,0.4314,-0.2541,12.929591,-71.14034,213.67548,189.2315,-0.0527,0.0512,51
0.6875,-0.5235,0.4362,-0.2506,13.7193165,-70.389114,214.97461,189.66792,-0.0717,0.0493,51
0.6886,-0.5197,0.4408,-0.2473,14.460002,-69.65523,216.20796,190.05257,-0.0756,0.0566,51
0.6897,-0.516,0.4451,-0.2444,15.166976,-68.96284,217.33206,190.36429,-0.0795,0.0527,51
0.6909,-0.5122,0.4491,-0.2419,15.844239,-68.293015,218.35733,190.58466,-0.0839,0.0468,51
0.692,-0.5083,0.4529,-0.2398,16.495756,-67.65134,219.2994,190.73558,-0.0888,0.0527,51
0.693,-0.5045,0.4566,-0.2379,17.13261,-67.037445,220.18977,190.86359,-0.104,0.0527,51
0.694,-0.5006,0.4602,-0.2363,17.757862,-66.43751,221.02502,190.93698,-0.1347,0.0297,51
0.695,-0.4967,0.4637,-0.2348,18.376377,-65.84785,221.82684,190.98697,-0.1621,0.0117,51
0.696,-0.4928,0.4671,-0.2333,19.470762,-65.262764,222.60822,191.02547,-0.186,-0.0014,51
0.6974,-0.4857,0.4734,-0.2313,19.928007,-64.254234,223.94278,191.03369,-0.2197,-0.0239,51
0.6978,-0.4826,0.4762,-0.2309,20.377617,-63.849083,224.47131,190.99545,-0.225,-0.0351,51
0.6983,-0.4792,0.4788,-0.2309,20.733181,-63.449703,224.93398,190.86957,-0.247,-0.0341,51
0.6985,-0.4762,0.4811,-0.2318,21.010029,-63.161533,225.23694,190.67178,-0.2734,-0.02,51
0.6985,-0.4733,0.483,-0.2337,21.188286,-62.967674,225.36856,190.35759,-0.2807,0.0083,51
0.698,-0.4709,0.4847,-0.2367,21.260635,-62.908886,225.33179,189.97633,-0.2958,0.0444,51
0.6924,-0.465,0.4889,-0.2553,21.162786,-63.626175,223.95818,188.05246,-0.4169,0.0561,51
0.6901,-0.4646,0.4895,-0.261,21.037142,-64.01065,223.38483,187.56158,-0.4355,0.0688,51
0.6875,-0.4645,0.4899,-0.2671,20.86852,-64.46427,222.71735,187.05435,-0.4453,0.0776,51
0.6845,-0.4649,0.4901,-0.2738,20.656965,-65.01874,221.9175,186.53003,-0.4487,0.1025,51
0.6809,-0.4659,0.4901,-0.2811,20.404661,-65.690865,220.97388,186.00826,-0.4682,0.1542,51
0.6767,-0.4674,0.4897,-0.2893,20.098686,-66.49927,219.81839,185.43481,-0.4833,0.2192,51
0.6718,-0.4696,0.4887,-0.2984,19.7511,-67.47234,218.40141,184.81705,-0.5,0.2954,51
0.6666,-0.4726,0.4871,-0.3078,19.339111,-68.56333,216.78107,184.20505,-0.4965,0.3549,51
0.6613,-0.4764,0.4845,-0.3173,18.847616,-69.76704,214.9241,183.57701,-0.4897,0.3969,51
0.6565,-0.4809,0.4807,-0.3263,18.272701,-71.018616,212.89369,182.93356,-0.475,0.4067,51
0.6529,-0.4855,0.4754,-0.3343,17.608995,-72.219246,210.77753,182.20311,-0.4418,0.4067,51
0.6504,-0.4904,0.469,-0.3411,16.856789,-73.35761,208.65558,181.45172,-0.373,0.3964,51
0.6492,-0.4953,0.4616,-0.3464,15.175015,-74.3771,206.62096,180.67677,-0.2729,0.371,51
0.6509,-0.504,0.445,-0.3522,14.28078,-75.89062,203.14214,179.0845,-0.102,0.35,51
0.6537,-0.5076,0.4361,-0.3531,13.370779,-76.37915,201.70909,178.24516,-0.0473,0.3491,51
0.6572,-0.5109,0.4266,-0.3534,12.49027,-76.779495,200.32516,177.33038,0.017,0.3232,51
0.661,-0.5141,0.4166,-0.3537,11.670705,-77.152176,198.89778,176.31812,0.0844,0.3076,51
0.6647,-0.5173,0.4061,-0.3542,10.968545,-77.53462,197.38033,175.21298,0.1157,0.2797,51
0.6679,-0.5207,0.3953,-0.3554,10.434344,-77.97952,195.70906,174.0055,0.1562,0.2641,51
0.6703,-0.5243,0.3845,-0.3574,10.095488,-78.49855,193.90106,172.72299,0.1694,0.2539,51
0.672,-0.5316,0.3641,-0.3647,10.331841,-79.76534,189.93301,169.919,0.2031,0.2661,51
0.6713,-0.5349,0.3551,-0.37,10.806114,-80.46767,187.87976,168.42853,0.2241,0.2802,51
0.6696,-0.5378,0.3473,-0.3763,11.506484,-81.192276,185.85648,166.92737,0.2343,0.2866,51
0.6668,-0.5401,0.3409,-0.3838,12.392603,-81.93887,183.87456,165.40942,0.2451,0.2607,51
0.663,-0.5418,0.3358,-0.3924,13.399399,-82.70481,181.93681,163.878,0.2397,0.2504,51
0.6583,-0.5428,0.3323,-0.4017,14.542797,-83.465256,180.13686,162.42372,0.2275,0.2358,51
0.6529,-0.5431,0.33,-0.4119,15.77898,-84.22324,178.41452,160.9691,0.1816,0.1958,51
0.647,-0.5427,0.3287,-0.4226,17.085863,-84.959564,176.801,159.54164,0.1215,0.1538,51
0.641,-0.5416,0.328,-0.4336,18.412876,-85.644646,175.29764,158.10365,0.061,0.121,51
0.635,-0.5399,0.3278,-0.4445,19.742857,-86.271484,173.93425,156.70288,-0.0004,0.1015,51
0.6294,-0.5375,0.3279,-0.4552,21.057076,-86.79925,172.73755,155.30438,-0.0483,0.0908,51
0.6242,-0.5346,0.3281,-0.4656,22.370596,-87.24301,171.67934,153.90808,-0.101,0.0815,51
0.6192,-0.5312,0.3283,-0.4758,23.650896,-87.622025,170.72556,152.49359,-0.1225,0.0805,51
0.6145,-0.5278,0.3284,-0.4857,26.107977,-87.966064,169.8378,151.09174,-0.1459,0.0737,51
0.6052,-0.5207,0.3287,-0.5043,27.225615,-88.58818,168.28615,148.4376,-0.2001,0.0595,51
0.601,-0.5174,0.3288,-0.5127,28.339611,-88.8586,167.62407,147.22562,-0.2207,0.0366,51
0.5968,-0.5144,0.328,-0.521,29.386864,-89.1448,166.86578,145.90382,-0.2207,0.0327,51
0.5928,-0.5118,0.3269,-0.5288,30.364147,-89.430115,166.11246,144.62022,-0.1972,0.0439,51
0.5888,-0.5095,0.3258,-0.536,31.230791,-89.72533,165.3918,143.436,-0.166,0.0615,51
0.585,-0.5075,0.3254,-0.5424,32.018738,-90.01745,164.80139,142.4884,-0.1752,0.061,51
0.5814,-0.5055,0.3252,-0.5481,32.733795,-90.28065,164.30522,141.66084,-0.185,0.0771,51
0.5783,-0.5036,0.325,-0.5533,34.420742,-90.49645,163.88284,140.89095,-0.206,0.0942,51
0.5703,-0.4994,0.3248,-0.5654,34.80428,-91.095406,162.8708,139.18767,-0.205,0.1357,51
0.5682,-0.4985,0.3251,-0.5681,35.07917,-91.268196,162.65428,138.88109,-0.1997,0.1474,51
0.5664,-0.4979,0.3258,-0.57,35.25853,-91.43181,162.51979,138.76462,-0.1918,0.1318,51
0.5647,-0.4977,0.327,-0.5712,35.393227,-91.61669,162.44267,138.8577,-0.185,0.1328,51
0.5632,-0.4979,0.3277,-0.5721,35.435223,-91.803635,162.31055,138.9289,-0.1694,0.1342,51
0.562,-0.4983,0.3287,-0.5723,35.37417,-91.97151,162.25243,139.15276,-0.1552,0.1328,51
0.5613,-0.499,0.3298,-0.5718,35.242783,-92.105354,162.25664,139.4944,-0.1479,0.1459,51
0.5611,-0.4997,0.3309,-0.5708,35.045605,-92.18133,162.33301,139.88501,-0.1103,0.1567,51
0.5613,-0.5004,0.332,-0.5693,34.799625,-92.208954,162.47372,140.3274,-0.0717,0.1938,51
0.5619,-0.5011,0.3332,-0.5675,34.51384,-92.192375,162.67831,140.81155,-0.0278,0.2099,51
0.5626,-0.5016,0.3348,-0.5653,34.188496,-92.14517,162.9766,141.3988,-0.0214,0.225,51
0.5634,-0.5021,0.3369,-0.5628,33.30171,-92.08479,163.35435,142.10797,-0.0126,0.2177,51
0.5657,-0.5033,0.3426,-0.5559,32.776775,-91.873764,164.43437,144.01778,-0.0292,0.1738,51
0.5669,-0.5043,0.3459,-0.5518,32.209606,-91.77347,165.03848,145.15979,-0.0156,0.1621,51
0.5682,-0.5054,0.3491,-0.5473,31.612198,-91.65314,165.66872,146.33597,-0.0068,0.1684,51
0.5696,-0.5067,0.3525,-0.5426,30.971437,-91.524704,166.33484,147.57794,0.0151,0.1743,51
0.5713,-0.5079,0.3558,-0.5375,30.320448,-91.34051,167.06908,148.82596,0.0512,0.1855,51
0.5732,-0.509,0.359,-0.5323,29.653118,-91.11749,167.84286,150.04375,0.061,0.2163,51
0.5753,-0.5099,0.3623,-0.5269,28.976421,-90.84502,168.69519,151.26793,0.061,0.2294,51
0.5776,-0.5107,0.3654,-0.5214,28.279451,-90.53603,169.5773,152.44383,0.0546,0.2392,51
0.5803,-0.5112,0.3686,-0.5157,27.549828,-90.153305,170.56662,153.6042,0.0439,0.2456,51
0.5833,-0.5114,0.372,-0.5096,26.762943,-89.69915,171.68253,154.79453,0.0278,0.2314,51
0.5866,-0.5115,0.3757,-0.5029,25.91711,-89.180954,172.9363,156.07062,0.0048,0.2026,51
0.5903,-0.5115,0.3795,-0.4956,25.019075,-88.591385,174.31812,157.39276,-0.0234,0.1674,51
0.5943,-0.5116,0.3832,-0.4878,24.035551,-87.96021,175.77162,158.73901,-0.0361,0.1479,51
0.5987,-0.5119,0.387,-0.4792,23.011925,-87.27351,177.34929,160.17926,-0.0493,0.1264,51
