q0,q1,q2,q3,MotionDeg,Roll,Pitch,Yaw,accX,accZ,0
0.4239,-0.4789,0.4911,-0.5912,0.010374364,-99.02722,163.87836,175.80292,0.1455,0.0546,1
0.424,-0.4789,0.4911,-0.5912,0.01619119,-99.02105,163.89133,175.78769,0.1372,0.0502,1
0.424,-0.4788,0.4911,-0.5912,0.01619119,-99.01594,163.90387,175.77434,0.1459,0.0532,1
0.424,-0.4788,0.4911,-0.5912,0.01619119,-99.01594,163.90387,175.77434,0.1455,0.0561,1
0.424,-0.4788,0.4911,-0.5912,0.21154784,-99.01594,163.90387,175.77434,0.1459,0.0522,1
0.4229,-0.478,0.4915,-0.5924,0.20072854,-99.08355,163.81851,175.75291,0.1328,0.0556,1
0.4228,-0.4782,0.4915,-0.5923,0.13414656,-99.094475,163.78699,175.80646,0.1386,0.0566,1
0.4231,-0.4786,0.4911,-0.592,0.29817262,-99.104774,163.75949,175.79266,0.1323,0.0493,1
0.4248,-0.4805,0.4893,-0.5908,0.8405433,-99.14243,163.6588,175.67265,0.1582,0.0551,1
0.4246,-0.4841,0.486,-0.5907,0.96017486,-99.53664,162.89177,175.72665,0.1601,0.0571,1
0.4244,-0.485,0.4854,-0.5907,0.94146484,-99.63207,162.69928,175.79175,0.1582,0.0527,1
0.4241,-0.4849,0.4855,-0.5909,0.90850097,-99.65025,162.66882,175.81557,0.1508,0.0371,1
0.424,-0.4847,0.4857,-0.591,0.8837013,-99.63933,162.69232,175.82123,0.1484,0.0458,1
0.4239,-0.4845,0.4858,-0.5911,0.7806563,-99.63456,162.70686,175.81255,0.143,0.04,1
0.4235,-0.4837,0.4863,-0.5916,0.77405137,-99.61469,162.76755,175.78043,0.1523,0.0625,1
0.4236,-0.4835,0.4862,-0.5918,0.7789534,-99.61513,162.78375,175.70064,0.1606,0.0703,1
0.4237,-0.4827,0.4857,-0.5928,0.7892032,-99.65214,162.7879,175.38988,0.1606,0.0742,1
0.4236,-0.4823,0.4855,-0.5933,0.835197,-99.676834,162.77518,175.26465,0.1577,0.0869,1
0.4232,-0.4814,0.4852,-0.5946,0.8561696,-99.7434,162.72672,175.0107,0.1489,0.0917,1
0.4229,-0.4809,0.4852,-0.5952,0.8870707,-99.76859,162.71266,174.91986,0.142,0.0869,1
0.4226,-0.4804,0.4852,-0.5958,0.9111817,-99.79377,162.69878,174.82903,0.1474,0.08,1
0.4223,-0.4799,0.4853,-0.5963,0.92669106,-99.80757,162.7002,174.76434,0.1386,0.0756,1
0.4221,-0.4796,0.4854,-0.5966,1.0044867,-99.814705,162.70206,174.73442,0.1347,0.0771,1
0.4223,-0.4798,0.4847,-0.5969,1.0456865,-99.87059,162.62212,174.5938,0.1269,0.0834,1
0.4228,-0.4802,0.4841,-0.5968,1.1020021,-99.89023,162.58952,174.49474,0.1347,0.0942,1
0.4233,-0.4805,0.4834,-0.5967,1.200359,-99.91056,162.56049,174.36752,0.1372,0.1137,1
0.4238,-0.4807,0.4825,-0.5969,1.3475541,-99.95321,162.5075,174.16216,0.1489,0.1123,1
0.4243,-0.4808,0.4813,-0.5974,1.4919316,-100.02369,162.42184,173.86328,0.1601,0.1201,1
0.4248,-0.4808,0.4802,-0.598,1.8263563,-100.08736,162.35144,173.553,0.163,0.1201,1
0.4255,-0.4804,0.4778,-0.5997,1.8985763,-100.248116,162.17473,172.83247,0.1757,0.1215,1
0.4254,-0.4802,0.4774,-0.6003,2.059168,-100.298096,162.11554,172.68951,0.1733,0.1074,1
0.4246,-0.4796,0.4767,-0.6019,2.139619,-100.44204,161.93202,172.43544,0.1552,0.1157,1
0.4241,-0.4793,0.4764,-0.6027,2.2414904,-100.51778,161.8327,172.33109,0.1411,0.1166,1
0.4236,-0.4792,0.4759,-0.6035,2.3628633,-100.61565,161.6916,172.22287,0.1274,0.1118,1
0.4232,-0.4793,0.4752,-0.6043,2.4959006,-100.72884,161.52148,172.09515,0.1333,0.124,1
0.4226,-0.4796,0.4744,-0.6051,6.1477885,-100.8719,161.2934,172.00923,0.143,0.1318,1
0.3879,-0.4734,0.4794,-0.6288,6.155,-103.75338,156.86717,174.89183,0.0454,0.0854,1
0.3877,-0.4753,0.4781,-0.6285,6.1172757,-103.92502,156.51224,175.03448,0.0463,0.0756,1
0.3877,-0.4773,0.4771,-0.6278,6.0427136,-104.0483,156.2111,175.24902,0.0571,0.0659,1
0.3879,-0.4791,0.4764,-0.6268,5.9576626,-104.11423,155.9974,175.48076,0.0458,0.0434,1
0.3883,-0.4807,0.4758,-0.6258,3.165524,-104.15159,155.84285,175.66312,0.0268,0.0322,1
0.4211,-0.4912,0.4687,-0.6013,2.91735,-101.72445,159.38834,173.37387,0.2373,0.143,1
0.4212,-0.4892,0.4704,-0.6015,1.9001096,-101.5232,159.78494,173.33008,0.2216,0.1279,1
0.4196,-0.4759,0.4821,-0.6041,1.891655,-100.37668,162.10004,173.26135,0.1064,0.0454,1
0.4196,-0.473,0.4844,-0.6044,7.207875,-100.104706,162.64412,173.1765,0.0888,0.0307,1
0.4089,-0.43,0.5179,-0.6161,8.516356,-97.18934,168.89516,172.31989,-0.0239,0.0229,1
0.4043,-0.4219,0.5243,-0.6192,9.109953,-96.84673,169.7045,172.39342,-0.0385,0.0253,1
0.4021,-0.4183,0.5272,-0.6206,9.63231,-96.70138,170.04813,172.44783,-0.0517,0.02,1
0.4001,-0.4152,0.5299,-0.6217,10.087007,-96.563805,170.35455,172.54367,-0.0551,0.0024,1
0.3982,-0.4126,0.5324,-0.6225,10.469332,-96.43972,170.6111,172.69617,-0.0649,-0.0019,1
0.3965,-0.4105,0.5346,-0.6231,11.898417,-96.334854,170.81534,172.86853,-0.0756,-0.0087,1
0.3832,-0.4067,0.5417,-0.6278,11.858049,-96.74279,169.91222,174.72974,-0.0595,-0.0083,1
0.3815,-0.408,0.5406,-0.6289,11.687789,-97.03666,169.36642,174.93568,-0.0605,-0.0292,1
0.3803,-0.4102,0.5391,-0.6295,11.403035,-97.340866,168.76524,175.19543,-0.0439,-0.0419,1
0.3799,-0.4129,0.5372,-0.6296,11.088931,-97.62031,168.19966,175.40323,0.0141,-0.041,1
0.3799,-0.4156,0.5352,-0.6295,10.876269,-97.87232,167.69,175.55493,0.0766,-0.0029,1
0.3794,-0.4178,0.5333,-0.63,10.154201,-98.15802,167.1551,175.66582,0.143,0.0429,1
0.3498,-0.4667,0.5052,-0.636,9.914996,-104.11132,154.31656,184.03589,0.4013,0.0502,1
0.352,-0.4664,0.5043,-0.6357,14.548058,-104.04959,154.60356,183.46469,0.4028,0.0678,1
0.3226,-0.453,0.502,-0.6622,15.221003,-106.656654,151.45363,184.43254,0.2343,0.145,1
0.3162,-0.4546,0.5022,-0.664,17.263775,-107.06965,150.3698,185.96301,0.1743,0.0903,1
0.2951,-0.4718,0.493,-0.6687,17.595499,-109.397835,144.69551,192.19415,0.2011,0.0527,1
0.292,-0.4755,0.4902,-0.6694,17.986303,-109.87825,143.63852,193.18497,0.2421,0.0727,1
0.2887,-0.4788,0.4875,-0.6705,22.60499,-110.36424,142.6171,194.15025,0.2734,0.0874,1
0.2528,-0.4868,0.4761,-0.6872,24.866507,-113.29919,136.45058,202.59161,0.3427,0.1083,1
0.2343,-0.48,0.4807,-0.6953,25.51373,-113.31418,135.34038,206.68613,0.249,0.1933,1
0.2289,-0.4779,0.4825,-0.6973,26.1399,-113.21365,135.05618,207.94933,0.2319,0.1748,1
0.2236,-0.4761,0.4842,-0.699,26.738287,-113.09096,134.74016,209.25221,0.2148,0.1523,1
0.2186,-0.4745,0.4857,-0.7007,27.279512,-112.979004,134.43045,210.48073,0.1972,0.1523,1
0.2141,-0.473,0.4869,-0.7022,28.199263,-112.880394,134.15579,211.56516,0.1738,0.1567,1
0.2061,-0.4716,0.4891,-0.7041,28.488743,-112.61677,133.49884,213.78464,0.0971,0.1518,1
0.2031,-0.4722,0.4902,-0.7038,28.623503,-112.40441,133.09677,214.911,0.0844,0.1386,1
0.2011,-0.4739,0.4911,-0.7025,28.568027,-112.15862,132.64175,215.98363,0.0703,0.0976,1
0.2004,-0.4769,0.492,-0.7001,28.279585,-111.8613,132.14868,216.9649,0.0732,0.0493,1
0.2014,-0.4815,0.4924,-0.6964,27.030643,-111.56714,131.60681,217.77692,0.1274,-0.0078,1
0.2091,-0.4947,0.4908,-0.686,23.443972,-111.184425,130.56732,218.48808,0.3208,-0.0468,1
0.2393,-0.5245,0.4759,-0.6641,22.76147,-111.990814,129.6078,215.44975,0.4589,0.0253,1
0.246,-0.5292,0.4724,-0.6604,22.00269,-112.2429,129.6812,214.29778,0.4145,0.0361,1
0.2536,-0.5338,0.4689,-0.6563,21.143139,-112.46097,129.8902,212.8825,0.3916,0.0454,1
0.2622,-0.5382,0.4658,-0.6515,20.212732,-112.56951,130.28256,211.23581,0.374,0.0224,1
0.2717,-0.5425,0.4628,-0.6461,17.087694,-112.59601,130.82944,209.38773,0.4008,-0.0302,1
0.3073,-0.5551,0.4521,-0.6268,16.138752,-112.30043,133.57132,202.09564,0.4653,-0.2089,1
0.3211,-0.5592,0.4469,-0.62,15.3066225,-112.16321,134.7448,199.05484,0.4829,-0.2163,1
0.3353,-0.5623,0.4411,-0.6137,3.81217,-111.978195,136.08218,195.67467,0.5009,-0.2026,1
0.4376,-0.4561,0.4803,-0.608,4.2150292,-98.341034,166.35661,167.29633,0.1376,0.0205,1
0.4382,-0.4495,0.4865,-0.6074,4.7640224,-97.57404,167.82155,167.35991,0.1176,0.0166,1
0.4394,-0.4434,0.4926,-0.6062,5.3914075,-96.76665,169.3311,167.44139,0.1054,0.0004,1
0.4414,-0.4378,0.4984,-0.604,6.0748115,-95.894905,170.92023,167.5348,0.081,-0.0107,1
0.4442,-0.4327,0.504,-0.601,6.790121,-94.96415,172.58807,167.63681,0.0419,-0.0307,1
0.4475,-0.428,0.5089,-0.5979,7.509599,-94.0519,174.21751,167.634,0.0317,-0.0537,1
0.4513,-0.4236,0.5128,-0.5947,8.235672,-93.16795,175.7894,167.48517,0.0312,-0.0742,1
0.4557,-0.4194,0.5158,-0.5918,8.907846,-92.315285,177.29929,167.14711,0.0234,-0.0844,1
0.4601,-0.4157,0.5181,-0.589,14.149923,-91.531296,178.67294,166.7828,0.0346,-0.0981,1
0.4827,-0.382,0.5375,-0.5762,14.561256,-86.31339,187.96646,164.11678,0.0878,0.0766,1
0.4806,-0.3779,0.5412,-0.5772,14.830466,-86.08963,188.51096,164.15938,0.0478,0.0888,1
0.4777,-0.3747,0.5442,-0.5789,14.968445,-86.04608,188.74037,164.22807,0.0317,0.0952,1
0.4745,-0.3725,0.5463,-0.5809,14.764592,-86.141914,188.70781,164.31046,0.0292,0.0966,1
0.4646,-0.3718,0.5496,-0.5862,14.702126,-86.90913,187.64774,165.03857,0.1103,0.1113,1
0.4615,-0.372,0.5509,-0.5872,14.712601,-87.122536,187.34506,165.42265,0.1547,0.1054,1
0.4581,-0.3716,0.5525,-0.5888,14.815663,-87.33719,187.05386,165.74312,0.1684,0.1298,1
0.453,-0.37,0.5542,-0.592,15.025135,-87.67615,186.59438,165.9529,0.1381,0.1713,1
0.4458,-0.3675,0.5562,-0.5972,15.366331,-88.198006,185.87169,166.12402,0.0668,0.1865,1
0.4368,-0.3644,0.5583,-0.6038,15.78171,-88.87669,184.91614,166.31532,-0.0078,0.1816,1
0.4267,-0.3617,0.5605,-0.6105,16.191397,-89.6478,183.78833,166.71994,-0.0625,0.1557,1
0.3665,-0.383,0.5687,-0.6288,15.55824,-94.79856,172.99928,176.83572,-0.0595,0.1474,1
0.3649,-0.3895,0.5655,-0.6285,14.674542,-95.36198,171.67255,177.70378,-0.083,0.0786,1
0.3647,-0.3972,0.5604,-0.6285,12.884886,-96.05868,170.20103,178.30246,-0.0488,0.0419,1
0.3644,-0.4122,0.5457,-0.6319,12.362526,-97.96273,166.78899,178.58241,0.1308,0.0678,1
0.3625,-0.4183,0.5385,-0.6352,12.16958,-99.03114,164.98337,178.63889,0.2036,0.0893,1
0.3587,-0.4238,0.5326,-0.6387,12.305294,-100.08927,163.11667,179.05905,0.2436,0.1054,1
0.3531,-0.4286,0.5283,-0.6421,12.7298355,-101.08432,161.24857,179.91597,0.2773,0.121,1
0.346,-0.4328,0.5255,-0.6455,13.306592,-102.009026,159.38521,181.18488,0.2954,0.1416,1
0.3383,-0.4366,0.5234,-0.6487,16.40149,-102.86488,157.56454,182.67294,0.3095,0.1328,1
0.3028,-0.4655,0.4983,-0.6657,17.040276,-108.32919,146.88776,190.2138,0.2919,0.0708,1
0.2978,-0.4681,0.4945,-0.6689,17.827204,-109.09619,145.62036,191.06544,0.291,0.1005,1
0.292,-0.4693,0.4916,-0.6728,18.678936,-109.80663,144.49863,191.9612,0.289,0.1152,1
0.2858,-0.4695,0.4895,-0.6769,20.48909,-110.43416,143.52272,192.91396,0.2758,0.122,1
0.2725,-0.4678,0.4872,-0.6851,21.486172,-111.45306,141.89732,195.07114,0.2529,0.1674,1
0.265,-0.4666,0.4865,-0.6893,22.507578,-111.91456,141.07788,196.44038,0.2358,0.1953,1
0.2572,-0.4652,0.4862,-0.6934,23.55938,-112.311165,140.28821,197.97035,0.206,0.2055,1
0.2489,-0.4639,0.4863,-0.6972,24.561749,-112.630844,139.46158,199.7909,0.1733,0.2021,1
0.2407,-0.4632,0.4865,-0.7004,25.463633,-112.87541,138.58809,201.80971,0.1074,0.163,1
0.2329,-0.4637,0.4866,-0.7027,26.831753,-113.044914,137.60979,204.04482,0.0634,0.122,1
0.2198,-0.4682,0.4862,-0.7042,28.630396,-113.15331,135.46436,208.70804,0.062,0.0761,1
0.2002,-0.4842,0.4842,-0.7006,28.502216,-112.71815,130.93938,217.87358,0.1044,0.0678,1
0.1993,-0.4928,0.4835,-0.6953,28.031967,-112.346,129.58194,220.05634,0.0869,-0.0732,1
0.2021,-0.5002,0.4821,-0.6902,27.289095,-112.19356,128.80087,220.81131,0.1601,-0.1245,1
0.2074,-0.5089,0.4801,-0.6836,25.457764,-112.08375,128.10712,221.1039,0.2919,-0.1494,1
0.2225,-0.5262,0.475,-0.6692,16.194113,-112.05011,127.28019,220.33374,0.6,-0.1225,1
0.3115,-0.5459,0.4554,-0.6304,12.338027,-111.90863,135.5002,199.47224,0.5151,-0.1303,1
0.3453,-0.5367,0.4561,-0.6201,11.114562,-109.8538,141.62233,190.70741,0.5205,0.0024,1
0.3548,-0.5311,0.4573,-0.6187,8.8121395,-109.06486,143.78339,187.97662,0.4731,0.0434,1
0.3698,-0.5159,0.4622,-0.6191,8.201486,-107.373245,148.13158,183.1081,0.392,0.0883,1
0.4348,-0.4196,0.5294,-0.5953,8.911888,-93.176056,175.8678,171.0572,-0.0366,-0.06,1
0.4395,-0.4145,0.5317,-0.5933,9.619092,-92.35638,177.42747,170.30287,0.0175,-0.0581,1
0.4438,-0.4099,0.5345,-0.5909,10.330213,-91.536934,178.95114,169.78242,0.0878,-0.0439,1
0.447,-0.4055,0.5379,-0.5884,11.0893135,-90.759796,180.38722,169.51157,0.1235,-0.038,1
0.4492,-0.4008,0.542,-0.5862,11.85755,-90.00881,181.78938,169.37314,0.1289,-0.0493,1
0.4507,-0.3961,0.5465,-0.584,12.574499,-89.28079,183.15468,169.35693,0.1386,-0.0517,1
0.4516,-0.3918,0.551,-0.582,13.202704,-88.62456,184.3909,169.43,0.122,-0.0673,1
0.4519,-0.388,0.5551,-0.5805,13.698433,-88.084015,185.41978,169.52866,0.1147,-0.0415,1
0.4514,-0.3849,0.5585,-0.5796,14.0463705,-87.70441,186.1555,169.65866,0.0981,-0.041,1
0.4507,-0.3826,0.5609,-0.5794,14.219147,-87.47673,186.61063,169.72794,0.0634,-0.0458,1
0.4501,-0.3813,0.562,-0.5796,14.181813,-87.3926,186.7916,169.7302,0.0224,-0.0468,1
0.4496,-0.3812,0.5616,-0.5804,13.973612,-87.48633,186.63562,169.65126,-0.0263,-0.0195,1
0.449,-0.3822,0.5602,-0.5816,13.705616,-87.725815,186.20096,169.57297,-0.0112,0.0312,1
0.4482,-0.3836,0.5585,-0.5829,12.86465,-88.02207,185.65852,169.52327,0.0361,0.0815,1
0.4451,-0.3885,0.5539,-0.5865,12.800196,-88.9492,183.94832,169.62032,0.1958,0.1962,1
0.4414,-0.3883,0.5539,-0.5894,12.885477,-89.33678,183.30171,169.72937,0.1943,0.2011,1
0.4273,-0.3872,0.5555,-0.599,13.047688,-90.61658,181.14978,170.48833,0.2143,0.1655,1
0.4184,-0.3875,0.5576,-0.6031,13.177871,-91.28924,179.91463,171.46417,0.2104,0.1274,1
0.4102,-0.3889,0.5597,-0.6058,12.96908,-91.8778,178.7141,172.6728,0.1943,0.0976,1
0.3995,-0.3949,0.5608,-0.608,12.675434,-92.84241,176.52399,174.82233,0.1723,0.1259,1
0.3967,-0.3985,0.5598,-0.6084,12.42285,-93.25641,175.57626,175.55438,0.184,0.187,1
0.394,-0.4018,0.5588,-0.609,12.285089,-93.65941,174.66129,176.22159,0.1704,0.2309,1
0.3907,-0.4045,0.5581,-0.61,12.238009,-94.06727,173.73988,176.89586,0.125,0.2124,1
0.3868,-0.4067,0.5573,-0.6117,12.117187,-94.529434,172.74321,177.52237,0.0668,0.1567,1
0.3831,-0.4095,0.5558,-0.6136,11.798959,-95.06479,171.61836,178.12164,0.0209,0.101,1
0.3801,-0.4136,0.553,-0.6152,11.268999,-95.69036,170.32639,178.69792,-0.0009,0.0634,1
0.3777,-0.4193,0.5488,-0.6166,10.1678,-96.43936,168.80164,179.28278,0.0405,0.0625,1
0.3726,-0.4322,0.5382,-0.6201,10.50359,-98.21259,165.30724,180.4174,0.2456,0.1376,1
0.3563,-0.4461,0.5269,-0.6295,10.948981,-100.962036,159.82423,183.04674,0.3232,0.1347,1
0.3499,-0.45,0.5242,-0.6326,11.355223,-101.795715,158.0704,184.19366,0.2968,0.1098,1
0.3442,-0.4541,0.5212,-0.6352,11.682776,-102.58782,156.39879,185.29547,0.2773,0.1083,1
0.3395,-0.4585,0.5179,-0.6373,11.922432,-103.33274,154.83649,186.29689,0.2646,0.0854,1
0.336,-0.4627,0.5141,-0.6391,12.099208,-104.03835,153.45552,187.02005,0.2495,0.0683,1
0.3336,-0.4665,0.51,-0.6409,14.717717,-104.70933,152.27206,187.42891,0.246,0.0356,1
0.3186,-0.481,0.4767,-0.6631,16.631468,-109.901276,145.68837,186.27808,0.2773,0.0908,1
0.3058,-0.483,0.4699,-0.6725,17.477533,-111.61607,143.28157,187.75757,0.3369,0.2119,1
0.2996,-0.4814,0.4696,-0.6766,18.440163,-112.07385,142.65851,188.60944,0.3305,0.2416,1
0.2923,-0.4788,0.4703,-0.6811,19.470482,-112.46833,142.09508,189.72853,0.2802,0.2216,1
0.2842,-0.476,0.4717,-0.6855,20.450428,-112.79833,141.51208,191.19032,0.2133,0.1518,1
0.2762,-0.4736,0.4735,-0.6892,21.347193,-113.031944,140.92523,192.87056,0.143,0.0849,1
0.2686,-0.472,0.4753,-0.6921,22.132324,-113.195854,140.29327,194.69897,0.0927,0.0429,1
0.2617,-0.4713,0.4768,-0.6942,22.819996,-113.312164,139.62018,196.55731,0.0654,0.0249,1
0.2554,-0.4712,0.4782,-0.6956,23.48178,-113.3659,138.938,198.42639,0.0703,0.0493,1
0.2492,-0.4712,0.4799,-0.6967,24.159456,-113.34237,138.2681,200.36179,0.083,0.0795,1
0.2429,-0.4709,0.4818,-0.6978,25.92444,-113.265724,137.63388,202.30089,0.0952,0.1181,1
0.2259,-0.4702,0.4886,-0.6992,26.004158,-112.62752,135.95425,207.83052,-0.0161,-0.0043,1
0.2237,-0.473,0.4905,-0.6968,24.334667,-112.25826,135.362,209.35811,-0.0322,-0.0805,1
0.2333,-0.4918,0.4871,-0.6829,23.498835,-111.86471,133.78552,210.75945,0.2812,-0.103,1
0.2396,-0.4995,0.4836,-0.6775,22.703356,-111.97541,133.37425,210.43332,0.352,-0.1069,1
0.246,-0.5076,0.4797,-0.6719,21.920336,-112.11624,132.91696,210.12311,0.3911,-0.1093,1
0.2528,-0.516,0.4756,-0.6659,21.14119,-112.253716,132.47314,209.75558,0.4208,-0.1108,1
0.2602,-0.5245,0.4713,-0.6595,20.340504,-112.38501,132.09824,209.2372,0.4584,-0.082,1
0.2685,-0.5326,0.4668,-0.6528,19.50916,-112.506874,131.90125,208.38551,0.5024,-0.038,1
0.2779,-0.5398,0.462,-0.6463,16.985725,-112.64396,131.97585,206.99872,0.5483,0.0122,1
0.309,-0.5526,0.4491,-0.6303,16.191328,-112.727295,133.92749,200.37772,0.602,0.0195,1
0.3194,-0.5547,0.4456,-0.6257,15.440884,-112.56944,134.93465,197.89555,0.602,-0.017,1
0.3296,-0.5562,0.4426,-0.6213,14.696498,-112.310455,136.03294,195.4811,0.583,-0.0668,1
0.3399,-0.557,0.44,-0.6168,13.965371,-111.93188,137.27383,193.0763,0.5581,-0.0712,1
0.3501,-0.5571,0.438,-0.6124,9.198356,-111.43674,138.64122,190.75941,0.5341,-0.0537,1
0.3873,-0.5323,0.4461,-0.6061,8.008796,-107.56214,147.69276,180.89189,0.3642,0.0405,1
0.3913,-0.5232,0.4513,-0.6077,6.319012,-106.63564,149.71893,179.46272,0.2973,0.0131,1
0.4393,-0.4331,0.5176,-0.5927,7.0007205,-94.14639,173.83365,171.01794,0.2231,-0.102,1
0.4417,-0.4294,0.5221,-0.5897,7.663604,-93.37237,175.23083,171.12836,0.2158,-0.1274,1
0.4442,-0.4254,0.5255,-0.5877,8.253602,-92.69148,176.50014,170.94077,0.1845,-0.1162,1
0.4465,-0.4214,0.5278,-0.5867,9.40362,-92.13907,177.56073,170.5397,0.1298,-0.0913,1
0.4507,-0.4123,0.5306,-0.5874,9.57715,-91.24041,179.36375,169.16243,0.0781,-0.0551,1
0.451,-0.4107,0.5309,-0.5881,9.659176,-91.152016,179.56255,168.8906,0.0966,-0.0336,1
0.4509,-0.4097,0.5308,-0.5889,9.729499,-91.15043,179.597,168.68167,0.1206,0.0039,1
0.451,-0.4091,0.531,-0.5891,9.807025,-91.109924,179.6836,168.5985,0.2153,0.0908,1
0.4506,-0.4089,0.5323,-0.5884,9.924534,-91.017944,179.84511,168.85011,0.2583,0.1538,1
0.4485,-0.4082,0.5345,-0.5885,10.116872,-91.003784,179.89484,169.26085,0.2993,0.2236,1
0.4437,-0.4065,0.5375,-0.5905,9.456567,-91.16707,179.67453,169.76332,0.29,0.2954,1
0.3865,-0.4342,0.5487,-0.6007,9.219597,-95.66832,169.084,181.54532,0.187,0.1381,1
0.3837,-0.4367,0.545,-0.6041,9.307962,-96.3863,167.80894,181.60129,0.2407,0.0996,1
0.3788,-0.4383,0.5422,-0.6085,9.640175,-97.163086,166.38728,181.8718,0.2607,0.0561,1
0.3724,-0.4398,0.5402,-0.6131,13.675769,-97.957886,164.8411,182.46489,0.2543,0.0258,1
0.3249,-0.5044,0.4685,-0.6483,14.45026,-110.22356,143.22769,189.03383,0.416,0.0791,1
0.3207,-0.5078,0.4634,-0.6514,15.36887,-111.117676,141.87389,189.50752,0.4516,0.1372,1
0.3151,-0.5098,0.4592,-0.6556,16.4215,-112.00721,140.5835,190.14142,0.4599,0.1772,1
0.3079,-0.5106,0.456,-0.6605,17.555784,-112.86807,139.32355,191.11823,0.4316,0.1962,1
0.2994,-0.5103,0.4543,-0.6659,18.740788,-113.624374,138.15604,192.51468,0.4008,0.2031,1
0.2898,-0.509,0.454,-0.6713,19.961588,-114.23561,137.08778,194.35922,0.3413,0.1938,1
0.2795,-0.5067,0.4549,-0.6768,25.662884,-114.69717,136.15445,196.50052,0.2885,0.1694,1
0.2334,-0.5607,0.443,-0.6593,25.318438,-115.28862,122.87606,221.3074,0.6962,-0.0351,1
0.2398,-0.5686,0.4382,-0.6534,25.0617,-115.61193,122.377815,220.67017,0.6884,-0.0444,1
0.2459,-0.5757,0.4334,-0.6482,24.793165,-115.97158,121.96752,219.89455,0.6572,-0.0395,1
0.2524,-0.5819,0.4287,-0.6432,24.44165,-116.33259,121.73586,218.78436,0.6298,-0.0268,1
0.2597,-0.587,0.4245,-0.6384,23.936735,-116.64264,121.7784,217.21973,0.5903,-0.0063,1
0.2681,-0.5907,0.4212,-0.6337,23.309137,-116.83072,122.19209,215.12872,0.5751,-0.0161,1
0.2774,-0.5932,0.4186,-0.6292,22.578663,-116.90149,122.927246,212.61333,0.5395,-0.0541,1
0.2875,-0.5947,0.4165,-0.6245,21.7857,-116.83138,123.937546,209.79929,0.5361,-0.1162,1
0.2985,-0.5957,0.4146,-0.6196,20.987877,-116.640686,125.17052,206.73715,0.5317,-0.1625,1
0.3105,-0.5969,0.4127,-0.6139,20.194809,-116.30787,126.550385,203.60063,0.539,-0.2246,1
0.3234,-0.5978,0.4107,-0.6076,14.027231,-115.83491,128.13055,200.3395,0.5649,-0.2084,1
0.3923,-0.5687,0.4143,-0.5923,12.451046,-110.408195,141.89395,181.14507,0.5195,0.0517,1
0.3998,-0.5574,0.4201,-0.5939,10.682733,-109.09348,144.70026,178.88333,0.4946,0.0585,1
0.4062,-0.545,0.428,-0.5955,8.830497,-107.6431,147.65477,177.15964,0.4663,0.0561,1
0.4115,-0.532,0.437,-0.597,6.9531865,-106.155266,150.63,175.80957,0.4316,0.0327,1
0.4158,-0.5189,0.4468,-0.5984,5.1595273,-104.673416,153.56075,174.78337,0.3896,0.02,1
0.4192,-0.5062,0.4566,-0.5995,3.5126047,-103.25828,156.34543,173.98698,0.3222,0.0068,1
0.4217,-0.4944,0.4663,-0.6001,2.1335585,-101.93228,158.92847,173.4773,0.2719,-0.0019,1
0.4238,-0.4838,0.4755,-0.6001,1.3870045,-100.6956,161.31154,173.15157,0.229,0.0043,1
0.4256,-0.474,0.4841,-0.5996,7.2417316,-99.530594,163.54439,172.91373,0.1875,0.0175,1
0.4362,-0.4259,0.5229,-0.5957,8.575113,-93.819214,174.61844,170.84096,-0.0673,-0.0454,1
0.4391,-0.417,0.5302,-0.5934,9.7841835,-92.60905,176.92279,170.47868,-0.0917,-0.059,1
0.442,-0.409,0.5366,-0.5909,10.818557,-91.48688,179.05284,170.13535,-0.1245,-0.0761,1
0.4453,-0.4023,0.5418,-0.5883,11.608038,-90.47159,180.96625,169.77496,-0.1455,-0.0659,1
0.449,-0.3975,0.5455,-0.5853,12.210807,-89.59577,182.58392,169.47813,-0.1347,-0.0571,1
0.4532,-0.3942,0.5479,-0.5821,12.706851,-88.83093,183.96625,169.19243,-0.0937,-0.0346,1
0.4577,-0.3919,0.5495,-0.5786,13.15735,-88.12867,185.20793,168.94891,-0.0507,-0.0175,1
0.4622,-0.3899,0.5505,-0.5754,14.0725155,-87.49124,186.32416,168.65742,-0.0131,-0.0258,1
0.4709,-0.3864,0.5526,-0.5686,14.464567,-86.23417,188.50165,168.25223,0.02,-0.0083,1
0.4739,-0.3849,0.5538,-0.5659,14.734646,-85.73861,189.3662,168.1743,0.0131,-0.0234,1
0.4763,-0.3838,0.5543,-0.5643,14.788628,-85.4032,189.94316,168.02155,0.0019,-0.0327,1
0.4782,-0.3839,0.5534,-0.5634,12.633581,-85.28012,190.11859,167.84227,-0.0307,-0.0366,1
0.4791,-0.4005,0.5388,-0.5653,12.483834,-87.04535,186.61569,167.91101,0.2924,0.1669,1
0.4755,-0.4001,0.5402,-0.5673,12.387054,-87.299416,186.24452,168.17905,0.2963,0.185,1
0.47,-0.3981,0.5423,-0.5713,12.375569,-87.65701,185.74199,168.33157,0.2666,0.226,1
0.4623,-0.3946,0.5448,-0.5776,12.473689,-88.176895,185.00888,168.35805,0.249,0.2421,1
0.4527,-0.3908,0.5477,-0.5849,12.722294,-88.837715,184.05473,168.52223,0.2045,0.2246,1
0.4423,-0.3876,0.5514,-0.5915,13.071879,-89.49866,183.07019,169.04887,0.1557,0.186,1
0.4321,-0.3856,0.5559,-0.5962,9.946357,-90.04902,182.17877,170.02483,0.1313,0.1494,1
0.3616,-0.4455,0.5216,-0.6312,9.869159,-101.18837,160.15073,181.17508,0.1875,-0.0336,1
0.3578,-0.4528,0.5157,-0.6331,9.968659,-102.22013,158.13474,182.03171,0.2236,-0.0117,1
0.3536,-0.46,0.5101,-0.6348,10.228373,-103.22892,156.12338,183.02765,0.2724,0.0317,1
0.3492,-0.4668,0.5049,-0.6364,10.670921,-104.18995,154.18475,184.0899,0.3305,0.0615,1
0.3444,-0.4729,0.5,-0.6384,11.239779,-105.13756,152.3054,185.15237,0.3813,0.0698,1
0.3395,-0.4781,0.4952,-0.6409,11.935674,-106.07297,150.53947,186.08794,0.4204,0.0507,1
0.3342,-0.4825,0.4906,-0.6439,12.770052,-107.00572,148.84474,186.99052,0.4477,0.0468,1
0.3282,-0.4855,0.4867,-0.6476,13.749333,-107.89813,147.29193,187.88559,0.4555,0.0698,1
0.3213,-0.4868,0.4838,-0.6523,14.872084,-108.73925,145.91162,188.792,0.4521,0.0795,1
0.3133,-0.4863,0.4821,-0.6579,16.129585,-109.50705,144.71078,189.79472,0.4414,0.101,1
0.3042,-0.484,0.4815,-0.6642,17.521656,-110.193016,143.69125,190.91673,0.4179,0.1318,1
0.2941,-0.4801,0.4821,-0.6712,19.07122,-110.78392,142.85068,192.19081,0.3979,0.165,1
0.2829,-0.4746,0.4836,-0.6788,20.755606,-111.296326,142.16394,193.61928,0.3398,0.1816,1
0.2708,-0.4678,0.4859,-0.6867,22.502405,-111.71425,141.61765,195.22136,0.2685,0.1669,1
0.2581,-0.4609,0.4887,-0.6942,29.665785,-112.02943,141.07819,197.1541,0.1572,0.1318,1
0.2016,-0.4448,0.4961,-0.7178,30.545328,-112.715034,136.94702,209.67175,-0.0917,0.0708,1
0.1937,-0.4455,0.496,-0.7196,31.224436,-112.69823,135.97638,212.10413,-0.1093,0.0551,1
0.1873,-0.4472,0.4953,-0.7207,31.697838,-112.68651,135.02643,214.29245,-0.1064,0.0302,1
0.1825,-0.4497,0.4942,-0.7211,31.91496,-112.67884,134.13539,216.17276,-0.0893,0.0351,1
0.1798,-0.4526,0.4932,-0.7207,32.00073,-112.65047,133.41818,217.53564,-0.0454,0.0551,1
0.178,-0.4563,0.4921,-0.7196,31.940702,-112.599304,132.68002,218.8074,-0.0107,0.0395,1
0.1771,-0.4613,0.4907,-0.7175,30.601969,-112.52566,131.84094,220.08765,0.0263,0.0097,1
0.1829,-0.4869,0.4837,-0.7038,29.671188,-112.31923,128.64865,223.53677,0.2182,-0.0883,1
0.1892,-0.4981,0.4804,-0.6965,28.613544,-112.33352,127.6503,223.92749,0.354,-0.0849,1
0.1972,-0.5091,0.4769,-0.6887,27.549015,-112.41405,126.874405,223.76949,0.5136,-0.0922,1
0.2059,-0.5188,0.4736,-0.6811,26.595211,-112.52234,126.38306,223.15335,0.6562,-0.0869,1
0.2143,-0.5268,0.4704,-0.6746,25.807667,-112.687164,126.12802,222.25067,0.727,-0.0883,1
0.2217,-0.533,0.4673,-0.6694,25.16486,-112.893616,126.031166,221.24155,0.7314,-0.0854,1
0.2282,-0.5385,0.4642,-0.665,11.283789,-113.11836,125.94231,220.31583,0.6821,-0.1015,1
0.347,-0.5194,0.4636,-0.6283,10.046558,-109.03538,144.3865,187.77039,0.3544,0.0166,1
0.3542,-0.5092,0.4688,-0.6287,8.982031,-107.932526,147.03229,185.31612,0.3076,0.0224,1
0.3605,-0.4979,0.4747,-0.6298,8.19266,-106.78652,149.72734,183.00204,0.2529,0.0209,1
0.3659,-0.4864,0.4809,-0.631,7.6866827,-105.639084,152.34424,180.94987,0.1918,0.0004,1
0.3709,-0.4751,0.487,-0.6319,7.261957,-104.495,154.88458,179.08325,0.1293,-0.0332,1
0.3867,-0.4476,0.5028,-0.6301,7.2465262,-101.14899,161.78879,174.7045,0.0278,-0.0649,1
0.3929,-0.4408,0.5072,-0.6276,7.2729225,-100.02191,163.93535,173.60083,0.0151,-0.0732,1
0.3995,-0.4349,0.5114,-0.6241,7.381379,-98.864746,166.06256,172.68486,0.0288,-0.0727,1
0.4062,-0.4298,0.5151,-0.6203,7.5572844,-97.75006,168.08492,171.87161,0.0239,-0.0585,1
0.4127,-0.4255,0.5183,-0.6163,7.7915363,-96.70347,169.95833,171.19104,0.0122,-0.0502,1
0.4191,-0.4218,0.5211,-0.6121,8.307203,-95.703476,171.72873,170.60881,0.0126,-0.0546,1
0.4329,-0.4165,0.5249,-0.6028,8.608341,-93.79526,175.04364,169.5504,0.0356,-0.0356,1
0.4399,-0.4148,0.5262,-0.5977,8.952398,-92.89125,176.57828,169.15298,0.0727,-0.0356,1
0.4466,-0.4136,0.5274,-0.5926,9.34793,-92.039,178.01013,168.87292,0.1132,-0.0141,1
0.4527,-0.4125,0.5285,-0.5877,9.753127,-91.24735,179.33904,168.66771,0.1381,-0.0312,1
0.4584,-0.4118,0.5295,-0.5828,10.162104,-90.51014,180.56812,168.56555,0.1674,-0.0512,1
0.4641,-0.4114,0.53,-0.5781,10.5704365,-89.82711,181.69765,168.43587,0.1694,-0.0498,1
0.4699,-0.4113,0.5299,-0.5736,11.0668745,-89.19615,182.7252,168.25618,0.2016,-0.0566,1
0.4764,-0.4108,0.5291,-0.5693,11.611064,-88.53901,183.78218,167.86978,0.2509,-0.0458,1
0.4828,-0.4098,0.528,-0.5657,13.009418,-87.90739,184.78185,167.34836,0.2973,-0.019,1
0.4941,-0.4031,0.5273,-0.5614,13.252262,-86.52406,187.00613,165.84492,0.2724,0.0292,1
0.4943,-0.4004,0.5284,-0.5621,13.359432,-86.32748,187.37779,165.57063,0.2314,0.0166,1
0.4929,-0.398,0.5299,-0.5636,13.381851,-86.28469,187.52678,165.44197,0.206,0.0166,1
0.4904,-0.3958,0.5316,-0.5657,13.3462715,-86.35346,187.51117,165.39946,0.1796,0.0234,1
0.4871,-0.394,0.5336,-0.568,14.323288,-86.49966,187.38329,165.4939,0.1816,0.0371,1
0.4474,-0.375,0.5563,-0.5911,15.059713,-88.174126,185.67235,167.49304,0.02,0.1918,1
0.4255,-0.3697,0.5628,-0.6044,15.212087,-89.68454,183.36006,168.73254,-0.0615,0.1342,1
0.4164,-0.3703,0.5649,-0.6084,13.491796,-90.39281,182.09406,169.75366,-0.0493,0.123,1
0.3903,-0.3957,0.5649,-0.6098,8.289085,-93.21634,175.45157,176.483,0.0278,0.1582,1
0.3803,-0.4416,0.5183,-0.6258,7.734165,-99.96165,163.18813,177.47421,0.2651,0.1191,1
0.379,-0.4493,0.5123,-0.626,7.3102207,-100.80329,161.52383,178.00304,0.3139,0.1347,1
0.3781,-0.4565,0.506,-0.6265,11.508327,-101.639145,159.94557,178.30832,0.353,0.1455,1
0.3483,-0.4788,0.4707,-0.654,13.0599985,-108.30717,149.59561,179.19221,0.1826,0.0439,1
0.3374,-0.4846,0.4642,-0.66,13.853722,-109.94807,146.9111,180.78893,0.2084,0.0781,1
0.3317,-0.488,0.4611,-0.6627,18.981066,-110.764404,145.51508,181.84645,0.2031,0.1,1
0.2873,-0.5112,0.4542,-0.6706,19.7881,-114.29459,136.50471,195.58351,0.2177,0.1503,1
0.2793,-0.5147,0.4554,-0.6704,20.560028,-114.42349,135.11372,198.76262,0.1909,0.122,1
0.2716,-0.5175,0.4571,-0.6703,21.317492,-114.42288,133.86967,201.82149,0.1923,0.0751,1
0.2642,-0.5196,0.4587,-0.6705,22.059467,-114.375626,132.7453,204.63878,0.2089,0.0756,1
0.2571,-0.521,0.4602,-0.6711,22.759455,-114.30097,131.74547,207.19887,0.1938,0.0747,1
0.2505,-0.522,0.4616,-0.6719,23.322626,-114.201256,130.85861,209.50996,0.1684,0.08,1
0.2451,-0.5227,0.463,-0.6724,24.24338,-114.050766,130.15788,211.42415,0.124,0.0556,1
0.2361,-0.5306,0.4647,-0.6683,12.938798,-113.484726,128.02524,216.19331,0.0224,-0.0776,1
0.3571,-0.5538,0.4424,-0.6082,11.896659,-110.403725,140.44994,189.83575,0.4189,-0.0903,1
0.3653,-0.549,0.4443,-0.6063,10.891602,-109.58235,142.40273,187.76018,0.4155,-0.1215,1
0.3744,-0.5447,0.4454,-0.6037,8.706171,-108.727295,144.38785,185.60876,0.4213,-0.0874,1
0.4555,-0.4147,0.5163,-0.5948,11.181119,-92.18364,177.65468,166.32964,0.0454,0.0312,1
0.4499,-0.3975,0.5381,-0.5915,11.365385,-90.27681,181.44609,167.88164,0.0488,0.0947,1
0.4489,-0.3958,0.539,-0.5926,11.635942,-90.25895,181.53543,167.77722,0.0141,0.1127,1
0.4472,-0.3932,0.5401,-0.5946,11.954429,-90.2751,181.60136,167.57176,0.0004,0.1059,1
0.4451,-0.3903,0.5415,-0.5968,12.306903,-90.29635,181.67252,167.38982,0.0136,0.1079,1
0.4428,-0.3874,0.5434,-0.5987,12.66165,-90.28849,181.79382,167.32051,0.0312,0.1147,1
0.4399,-0.3848,0.5459,-0.6001,13.676497,-90.27747,181.9088,167.4789,0.0415,0.1323,1
0.422,-0.3798,0.5554,-0.6075,13.420057,-91.04699,180.7645,169.33278,-0.0351,0.2021,1
0.4204,-0.3823,0.5551,-0.6072,12.996543,-91.27975,180.25873,169.85194,-0.0014,0.2036,1
0.42,-0.386,0.5542,-0.606,12.463228,-91.48314,179.75717,170.40117,0.0478,0.2041,1
0.4206,-0.3903,0.5526,-0.6043,11.906878,-91.66779,179.27393,170.87408,0.1054,0.2221,1
0.4216,-0.3947,0.5508,-0.6024,11.413893,-91.83339,178.82367,171.30647,0.1503,0.2373,1
0.4226,-0.3985,0.549,-0.6008,11.01177,-91.98511,178.42604,171.63011,0.1767,0.2441,1
0.423,-0.4017,0.5476,-0.5997,10.700038,-92.147446,178.02895,171.94722,0.1655,0.2348,1
0.4228,-0.4041,0.5463,-0.5994,10.432051,-92.34464,177.60605,172.16797,0.1479,0.2182,1
0.4222,-0.4061,0.545,-0.5997,10.170089,-92.579926,177.13754,172.32777,0.1264,0.1806,1
0.4213,-0.4079,0.5434,-0.6005,9.887626,-92.8696,176.59163,172.41547,0.104,0.166,1
0.4202,-0.4097,0.5413,-0.602,9.588584,-93.24183,175.92274,172.39983,0.0981,0.1689,1
0.419,-0.4115,0.5387,-0.604,9.258146,-93.67871,175.16142,172.28604,0.1049,0.1674,1
0.4176,-0.4135,0.5356,-0.6062,8.863744,-94.179,174.2955,172.14235,0.1201,0.163,1
0.4162,-0.4161,0.532,-0.6086,7.8458343,-94.75152,173.30014,171.99243,0.1381,0.1699,1
0.4133,-0.4236,0.5236,-0.6126,7.214977,-96.04709,170.97604,171.92952,0.2016,0.1704,1
0.4121,-0.4286,0.5189,-0.614,6.525203,-96.73995,169.69208,172.01944,0.2246,0.1674,1
0.4112,-0.4342,0.5139,-0.6149,5.8161926,-97.43503,168.3808,172.15251,0.2548,0.1562,1
0.4107,-0.4401,0.5087,-0.6154,5.1787505,-98.11016,167.09361,172.27332,0.2851,0.1669,1
0.4104,-0.4458,0.5033,-0.616,4.6881843,-98.7794,165.8379,172.28548,0.3134,0.184,1
0.41,-0.451,0.4979,-0.6168,4.437098,-99.43937,164.62627,172.20692,0.3349,0.1992,1
0.4094,-0.4552,0.4929,-0.6181,4.5724945,-100.06242,163.52664,172.0075,0.3286,0.1967,1
0.4074,-0.4605,0.4849,-0.6219,4.8239512,-101.14104,161.73875,171.42654,0.2929,0.1752,1
0.406,-0.4618,0.482,-0.624,5.128174,-101.58097,161.05472,171.14362,0.2543,0.1591,1
0.4044,-0.4625,0.4798,-0.6262,5.4525223,-101.96685,160.47885,170.9019,0.2285,0.142,1
0.4026,-0.4628,0.4782,-0.6284,6.1310067,-102.31032,159.98189,170.72922,0.2021,0.123,1
0.3983,-0.4634,0.4755,-0.6327,6.480307,-103.01127,158.9592,170.59229,0.1513,0.1181,1
0.3959,-0.4641,0.474,-0.6348,6.803731,-103.40609,158.36363,170.60713,0.1425,0.1254,1
0.3934,-0.4654,0.4724,-0.6366,7.0960174,-103.829506,157.68982,170.74687,0.1367,0.1264,1
0.3908,-0.4673,0.4708,-0.638,7.3710246,-104.2701,156.9484,171.04216,0.1455,0.1181,1
0.4868,-0.5182,0.4457,-0.5437,0,-97.084305,166.13026,171.14978,0.1318,0.0756,2
0.4868,-0.5182,0.4457,-0.5437,0,-97.084305,166.13026,171.14978,0.1411,0.0708,2
0.4868,-0.5182,0.4457,-0.5437,0.01619878,-97.084305,166.13026,171.14978,0.1279,0.0771,2
0.4868,-0.5181,0.4457,-0.5438,0.022924999,-97.0829,166.1336,171.12538,0.1357,0.0659,2
0.4867,-0.5181,0.4458,-0.5438,0.029914642,-97.08533,166.13197,171.153,0.1362,0.0722,2
0.4867,-0.5181,0.4459,-0.5438,0.08016549,-97.08053,166.14229,171.16833,0.1337,0.0654,2
0.4866,-0.5178,0.4462,-0.5439,0.090899035,-97.05986,166.1877,171.1789,0.1284,0.0634,2
0.4866,-0.5177,0.4462,-0.544,0.10562549,-97.05846,166.19104,171.15453,0.125,0.0668,2
0.4866,-0.5176,0.4463,-0.544,0.17418489,-97.047615,166.21289,171.15819,0.1254,0.0659,2
0.4866,-0.5171,0.4466,-0.5442,0.17418489,-97.01229,166.28514,171.12042,0.1293,0.0693,2
0.4866,-0.5171,0.4466,-0.5442,0.17418489,-97.01229,166.28514,171.12042,0.1259,0.062,2
0.4866,-0.5171,0.4466,-0.5442,0.17418489,-97.01229,166.28514,171.12042,0.1333,0.0688,2
0.4866,-0.5171,0.4466,-0.5442,0.17418489,-97.01229,166.28514,171.12042,0.122,0.0747,2
0.4866,-0.5171,0.4466,-0.5442,0.17418489,-97.01229,166.28514,171.12042,0.1201,0.0664,2
0.4866,-0.5171,0.4466,-0.5442,0.17418489,-97.01229,166.28514,171.12042,0.1289,0.0673,2
0.4866,-0.5171,0.4466,-0.5442,0.17418489,-97.01229,166.28514,171.12042,0.1274,0.0639,2
0.4866,-0.5171,0.4466,-0.5442,0.17418489,-97.01229,166.28514,171.12042,0.1293,0.0659,2
0.4866,-0.5171,0.4466,-0.5442,0.17418489,-97.01229,166.28514,171.12042,0.1254,0.0659,2
0.4866,-0.5171,0.4466,-0.5442,0.16114615,-97.01229,166.28514,171.12042,0.1284,0.0673,2
0.4867,-0.5172,0.4466,-0.5441,0.1507386,-97.00648,166.29373,171.13257,0.1259,0.0683,2
0.4868,-0.5172,0.4465,-0.544,0.1507386,-96.99943,166.30356,171.11772,0.1293,0.0678,2
0.4868,-0.5172,0.4465,-0.544,0.1507386,-96.99943,166.30356,171.11772,0.1259,0.0668,2
0.4868,-0.5172,0.4465,-0.544,0.1507386,-96.99943,166.30356,171.11772,0.1318,0.0717,2
0.4868,-0.5172,0.4465,-0.544,0.1507386,-96.99943,166.30356,171.11772,0.1284,0.0688,2
0.4868,-0.5172,0.4465,-0.544,0.1507386,-96.99943,166.30356,171.11772,0.1411,0.0639,2
0.4868,-0.5172,0.4465,-0.544,0.1507386,-96.99943,166.30356,171.11772,0.1352,0.0776,2
0.4868,-0.5172,0.4465,-0.544,0.15105371,-96.99943,166.30356,171.11772,0.1279,0.0737,2
0.4869,-0.5172,0.4465,-0.544,0.1445128,-96.99221,166.31549,171.1055,0.1323,0.0629,2
0.4869,-0.5172,0.4464,-0.544,0.1445128,-96.997,166.30518,171.09018,0.1381,0.0737,2
0.4869,-0.5172,0.4464,-0.544,0.1445128,-96.997,166.30518,171.09018,0.1459,0.0805,2
0.4869,-0.5172,0.4464,-0.544,1.6790705,-96.997,166.30518,171.09018,0.1401,0.0732,2
0.4774,-0.5133,0.453,-0.5507,1.6790705,-97.433945,165.74689,171.97562,0.0942,0.1279,2
0.4774,-0.5133,0.453,-0.5507,1.8276002,-97.433945,165.74689,171.97562,0.0942,0.1279,2
0.4765,-0.5129,0.4534,-0.5515,1.9623282,-97.49199,165.66104,172.00293,0.0766,0.1333,2
0.4756,-0.5126,0.4536,-0.5523,2.0782518,-97.56601,165.54335,172.0122,0.0625,0.1313,2
0.4748,-0.5125,0.4537,-0.5531,2.1802804,-97.64977,165.40448,172.0178,0.0556,0.1455,2
0.474,-0.5124,0.4536,-0.5538,2.2574139,-97.73892,165.2535,172.00581,0.0366,0.1381,2
0.4734,-0.5125,0.4534,-0.5545,2.2880821,-97.830765,165.09363,171.97699,0.0375,0.1225,2
0.4729,-0.5129,0.4529,-0.5549,2.2754397,-97.93401,164.90419,171.96317,0.0195,0.1137,2
0.4727,-0.5136,0.452,-0.5553,2.2675877,-98.05387,164.67638,171.88484,0.0366,0.1186,2
0.4724,-0.5144,0.451,-0.5556,2.2863858,-98.186874,164.42255,171.82816,0.0537,0.1152,2
0.472,-0.5153,0.4498,-0.5561,2.3101728,-98.35236,164.10971,171.73955,0.06,0.1088,2
0.4716,-0.5163,0.4485,-0.5565,2.364219,-98.52392,163.78322,171.65903,0.0805,0.1088,2
0.4711,-0.5175,0.447,-0.557,2.45586,-98.728966,163.39398,171.57048,0.0957,0.104,2
0.4705,-0.5187,0.4455,-0.5576,2.5938768,-98.945724,162.9856,171.48088,0.102,0.1049,2
0.4696,-0.5201,0.4441,-0.5582,2.9980373,-99.190704,162.52719,171.46994,0.1079,0.1035,2
0.4672,-0.5224,0.4416,-0.56,3.491288,-99.70751,161.58249,171.43723,0.1103,0.0605,2
0.4641,-0.5252,0.4394,-0.5617,3.53219,-100.28444,160.53046,171.62328,0.0766,-0.0566,2
0.4639,-0.5261,0.4389,-0.5615,3.562202,-100.36718,160.36461,171.70482,0.0664,-0.0942,2
0.4639,-0.5269,0.4382,-0.5613,4.420617,-100.439804,160.21622,171.71338,0.0688,-0.1113,2
0.4583,-0.5309,0.4356,-0.564,4.7669363,-101.3329,158.6,172.20956,0.2021,0.0571,2
0.4555,-0.5307,0.4361,-0.5661,5.1018324,-101.59444,158.17516,172.39786,0.1733,0.0991,2
0.4526,-0.53,0.4372,-0.5682,5.4714823,-101.80267,157.85457,172.64503,0.1284,0.122,2
0.4493,-0.5286,0.4393,-0.5706,5.8728514,-101.95956,157.64122,172.9982,0.0957,0.1489,2
0.4459,-0.5267,0.4417,-0.5731,6.200302,-102.082115,157.49641,173.34543,0.019,0.1196,2
0.4433,-0.5249,0.4439,-0.5751,6.381298,-102.139305,157.45575,173.6188,-0.0659,0.0732,2
0.4418,-0.5243,0.445,-0.5759,6.3810387,-102.18801,157.38562,173.85129,-0.1416,0.0263,2
0.4416,-0.5253,0.4447,-0.5754,5.863954,-102.24903,157.24216,174.02573,-0.1762,0.0249,2
0.4469,-0.535,0.4358,-0.5691,5.7516494,-102.604095,156.33186,173.77783,0.0346,0.0131,2
0.4488,-0.5365,0.4335,-0.568,4.5155272,-102.626305,156.25371,173.43044,0.0385,0.0302,2
0.466,-0.5412,0.4248,-0.5561,4.3123074,-101.55343,157.85695,171.58792,0.0913,0.0205,2
0.4671,-0.5401,0.4256,-0.5557,2.330049,-101.35038,158.2305,171.49245,0.0844,0.0312,2
0.476,-0.5289,0.4349,-0.5518,2.1767535,-99.40375,161.84781,171.0217,0.0429,0.0473,2
0.4769,-0.5278,0.4353,-0.5516,2.031372,-99.24366,162.14142,170.86496,0.0517,0.0424,2
0.4779,-0.5269,0.4357,-0.5514,1.8896217,-99.087944,162.42374,170.71988,0.0468,0.0239,2
0.4788,-0.5261,0.4361,-0.551,1.7701813,-98.936516,162.69691,170.62634,0.061,0.039,2
0.4794,-0.5256,0.4366,-0.5505,1.6837898,-98.8159,162.91626,170.63629,0.0595,0.0332,2
0.4795,-0.5264,0.4375,-0.549,1.6540809,-98.74551,163.04095,171.05774,0.0854,0.0112,2
0.4799,-0.527,0.4376,-0.5479,1.5498043,-98.697296,163.11505,171.23607,0.1225,-0.0141,2
0.4813,-0.5275,0.4379,-0.546,1.4453388,-98.52396,163.40651,171.41037,0.184,-0.062,2
0.4818,-0.5273,0.4387,-0.5452,1.3845215,-98.40026,163.63513,171.55411,0.1752,-0.0444,2
0.4815,-0.5271,0.4396,-0.5449,1.582746,-98.35242,163.73714,171.75029,0.1762,-0.0239,2
0.4792,-0.5281,0.4401,-0.5456,1.8191751,-98.58531,163.33426,172.1527,0.2421,0.0043,2
0.4777,-0.5293,0.4394,-0.5462,2.0994592,-98.82663,162.89111,172.30125,0.3144,0.018,2
0.4761,-0.5307,0.4384,-0.5471,2.3643336,-99.11569,162.35825,172.40152,0.375,0.0288,2
0.475,-0.532,0.4369,-0.548,2.5550325,-99.38798,161.84921,172.34389,0.4179,0.0629,2
0.4746,-0.533,0.4354,-0.5485,2.6741707,-99.57364,161.49379,172.20813,0.3974,0.104,2
0.4745,-0.5336,0.4343,-0.5488,2.8087208,-99.68473,161.27827,172.0745,0.3271,0.1025,2
0.4742,-0.5344,0.4334,-0.549,2.9743695,-99.80745,161.04227,172.03648,0.2963,0.0605,2
0.4742,-0.5356,0.4321,-0.5489,3.1108444,-99.93799,160.77962,171.9791,0.3188,0.0263,2
0.4749,-0.5368,0.4306,-0.5483,3.232841,-100.00451,160.62183,171.85976,0.3881,0.038,2
0.476,-0.5378,0.429,-0.5477,3.2624037,-100.03431,160.52727,171.64575,0.4414,0.0747,2
0.4769,-0.5379,0.4281,-0.5475,3.2117233,-100.00865,160.55246,171.41475,0.5112,0.1293,2
0.4768,-0.537,0.4281,-0.5484,2.9462974,-100.00257,160.5776,171.20198,0.5327,0.1713,2
0.476,-0.5347,0.4303,-0.5496,2.6699374,-99.87233,160.87668,171.24232,0.4877,0.1684,2
0.4743,-0.5319,0.4337,-0.5511,2.565887,-99.733284,161.22,171.49826,0.4243,0.1489,2
0.4715,-0.5289,0.4378,-0.5532,2.7148802,-99.65322,161.47491,171.90828,0.3554,0.1118,2
0.4678,-0.5258,0.4429,-0.5553,3.112675,-99.57688,161.72685,172.58466,0.3046,0.0595,2
0.4639,-0.5227,0.448,-0.5574,3.667261,-99.507,161.95074,173.2827,0.246,0.0117,2
0.46,-0.5199,0.4523,-0.5598,4.767319,-99.504196,162.03534,173.84998,0.1948,-0.0058,2
0.4531,-0.5158,0.4575,-0.5649,5.2477903,-99.71048,161.78189,174.4827,0.1274,0.0351,2
0.45,-0.5148,0.4587,-0.5674,5.648421,-99.92128,161.44218,174.67778,0.1,0.0356,2
0.4472,-0.5146,0.4588,-0.5697,7.7359414,-100.20746,160.95465,174.79128,0.103,0.04,2
0.4323,-0.5209,0.4487,-0.5833,8.124823,-102.80635,156.45282,174.56319,0.1733,0.1215,2
0.4297,-0.522,0.4471,-0.5855,8.534762,-103.24222,155.70941,174.57959,0.1577,0.104,2
0.4268,-0.5232,0.4458,-0.5875,8.943025,-103.67649,154.95656,174.73814,0.1474,0.0625,2
0.424,-0.5247,0.4441,-0.5895,9.334972,-104.143,154.14888,174.85786,0.1538,0.0585,2
0.4214,-0.5263,0.4421,-0.5914,9.728566,-104.61397,153.3389,174.92278,0.1938,0.0996,2
0.4189,-0.5274,0.4405,-0.5935,10.1891,-105.03809,152.63232,174.94923,0.2119,0.1499,2
0.4159,-0.5276,0.4395,-0.5961,10.73402,-105.438515,152.00157,174.98373,0.2172,0.1757,2
0.4123,-0.5268,0.4394,-0.5994,11.333082,-105.80845,151.4631,175.06143,0.2104,0.1904,2
0.4082,-0.5251,0.4403,-0.603,13.230674,-106.120346,151.04529,175.25267,0.1542,0.1723,2
0.395,-0.5183,0.4457,-0.6136,13.444753,-106.8455,150.14331,176.32912,-0.0283,-0.0429,2
0.3935,-0.5188,0.4449,-0.6147,13.640307,-107.073524,149.7789,176.40524,-0.02,-0.0576,2
0.3924,-0.5227,0.4399,-0.6157,13.719617,-107.70356,148.72514,176.1547,0.0766,0.0024,2
0.3923,-0.5254,0.4362,-0.6161,13.857252,-108.09588,148.07837,175.83443,0.1533,0.0595,2
0.3919,-0.528,0.4326,-0.6167,14.065961,-108.5054,147.4085,175.53873,0.2202,0.1152,2
0.3909,-0.5301,0.4296,-0.6175,14.324276,-108.90229,146.76428,175.36607,0.27,0.1582,2
0.3893,-0.5316,0.4278,-0.6185,14.606396,-109.24464,146.2037,175.42532,0.2739,0.144,2
0.3873,-0.5326,0.4269,-0.6196,14.851353,-109.537796,145.71967,175.6549,0.2612,0.1206,2
0.3854,-0.5332,0.4266,-0.6205,15.05205,-109.756874,145.34996,175.95306,0.2416,0.0917,2
0.3837,-0.5337,0.4266,-0.6211,15.219127,-109.923386,145.05022,176.29787,0.2509,0.0747,2
0.3821,-0.5342,0.4269,-0.6214,15.356771,-110.04828,144.79428,176.72386,0.2636,0.0766,2
0.3808,-0.5345,0.4272,-0.6217,15.467504,-110.14281,144.60168,177.05984,0.2836,0.0893,2
0.3796,-0.5348,0.4278,-0.6218,15.596733,-110.20015,144.44962,177.46138,0.31,0.1152,2
0.3782,-0.5349,0.4287,-0.622,15.89799,-110.244675,144.31474,177.92145,0.3159,0.1293,2
0.3749,-0.5337,0.4318,-0.6228,16.218554,-110.22793,144.23372,178.9361,0.29,0.1518,2
0.3682,-0.5311,0.4452,-0.6196,16.229998,-109.38219,144.72794,182.85205,0.2182,0.0234,2
0.3678,-0.532,0.4453,-0.619,16.198206,-109.401566,144.58554,183.17047,0.2045,0.0766,2
0.3678,-0.5329,0.4451,-0.6183,15.990175,-109.41587,144.47826,183.36162,0.1699,0.1191,2
0.3689,-0.5349,0.4449,-0.6162,15.745871,-109.33971,144.4242,183.65611,0.1181,0.0971,2
0.3704,-0.5359,0.445,-0.6143,15.357971,-109.18942,144.56805,183.73796,0.0913,0.0502,2
0.3729,-0.5372,0.4452,-0.6115,8.678511,-108.94117,144.84998,183.78136,0.0668,-0.0317,2
0.4291,-0.5604,0.4298,-0.5629,7.3508997,-105.19531,150.68744,179.7886,0.4536,-0.0361,2
0.5304,-0.5175,0.4512,-0.497,7.976734,-91.49999,176.12321,172.89296,0.1533,-0.0898,2
0.5353,-0.5124,0.4538,-0.4948,8.587808,-90.61046,177.71086,172.486,0.1401,-0.081,2
0.5396,-0.5071,0.4567,-0.4929,9.197798,-89.74948,179.24605,172.12988,0.1206,-0.0717,2
0.5433,-0.5018,0.4602,-0.4911,9.782526,-88.907974,180.76755,171.90189,0.1137,-0.0566,2
0.5462,-0.4966,0.4641,-0.4894,10.351119,-88.11534,182.2273,171.79688,0.1054,-0.0532,2
0.5484,-0.4915,0.4685,-0.4878,10.860913,-87.36019,183.65155,171.81076,0.1044,-0.0473,2
0.5497,-0.4871,0.4732,-0.4863,11.369983,-86.70378,184.94118,171.99226,0.1147,-0.0507,2
0.5505,-0.4829,0.4781,-0.4847,11.885751,-86.078896,186.19919,172.26222,0.1259,-0.0537,2
0.5509,-0.4789,0.4834,-0.4831,12.476292,-85.474014,187.44893,172.62071,0.1352,-0.0571,2
0.5512,-0.4743,0.4891,-0.4814,13.096985,-84.81009,188.81152,172.96767,0.1337,-0.0786,2
0.5514,-0.4695,0.495,-0.4799,13.687722,-84.13798,190.18741,173.28448,0.1113,-0.0825,2
0.5511,-0.4648,0.5008,-0.4787,14.160347,-83.52165,191.46475,173.59222,0.0561,-0.0673,2
0.55,-0.4604,0.5062,-0.4785,14.479383,-83.044655,192.47955,173.82855,0.0224,-0.0454,2
0.5479,-0.4568,0.5111,-0.4792,14.61195,-82.75181,193.16373,174.06909,-0.0224,-0.0034,2
0.5448,-0.4542,0.5152,-0.4809,14.623757,-82.675545,193.44751,174.29988,-0.0126,0.0209,2
0.5412,-0.4525,0.5185,-0.483,14.314936,-82.74563,193.45197,174.5415,-0.019,0.0151,2
0.5331,-0.4521,0.5228,-0.4878,14.092053,-83.26935,192.71382,175.13405,0.0175,0.0864,2
0.5283,-0.4529,0.5247,-0.4901,6.4698806,-83.64093,192.14232,175.60312,0.04,0.0795,2
0.4531,-0.5028,0.4876,-0.5513,6.933953,-96.52362,167.39056,178.80286,0.1713,0.103,2
0.4465,-0.5037,0.4863,-0.557,7.3624983,-97.35821,165.8105,179.01378,0.1064,0.0371,2
0.4405,-0.5052,0.484,-0.5623,7.590675,-98.22769,164.18393,179.15018,0.0703,-0.0385,2
0.4362,-0.5077,0.48,-0.5669,7.7165213,-99.11602,162.56798,179.02325,0.0664,-0.0581,2
0.4331,-0.5107,0.4748,-0.571,7.8855243,-100.00625,160.99481,178.66281,0.1298,0.0151,2
0.4305,-0.5134,0.4695,-0.5749,8.251615,-100.844955,159.55275,178.17772,0.2221,0.1396,2
0.4275,-0.5146,0.4655,-0.5792,8.836219,-101.57016,158.35783,177.68759,0.2705,0.2368,2
0.4237,-0.5142,0.4636,-0.584,10.521934,-102.1584,157.43306,177.3691,0.2622,0.2666,2
0.4136,-0.5089,0.4646,-0.5949,11.484835,-103.034256,156.20892,177.15276,0.1362,0.1562,2
0.4081,-0.5051,0.4662,-0.6007,12.413058,-103.39278,155.78014,177.11467,0.0639,0.0854,2
0.4028,-0.5013,0.468,-0.606,13.188667,-103.70003,155.43486,177.14883,-0.0146,-0.0043,2
0.3984,-0.4984,0.4688,-0.6107,13.7496395,-104.02848,155.05486,177.07814,-0.0878,-0.0634,2
0.3952,-0.4968,0.4681,-0.6146,14.127434,-104.401306,154.59654,176.84431,-0.1166,-0.0712,2
0.393,-0.4967,0.4656,-0.618,14.3113365,-104.87495,153.96991,176.41727,-0.1015,-0.0629,2
0.3919,-0.4978,0.4621,-0.6204,14.390105,-105.34857,153.31004,175.91234,-0.0605,-0.0341,2
0.3914,-0.5001,0.4575,-0.6223,14.443423,-105.88408,152.52017,175.3328,-0.0161,-0.0112,2
0.391,-0.5032,0.4523,-0.6238,14.520363,-106.46627,151.62029,174.77554,0.0283,0.017,2
0.3905,-0.5068,0.4468,-0.6251,14.611385,-107.084816,150.63773,174.25659,0.0908,0.0483,2
0.39,-0.5108,0.4414,-0.6261,14.851802,-107.69865,149.63199,173.82549,0.1552,0.083,2
0.3887,-0.5179,0.4325,-0.6272,15.6840725,-108.73669,147.88518,173.29744,0.2729,0.1411,2
0.3827,-0.5221,0.428,-0.6305,15.6840725,-109.793205,146.17844,173.80669,0.3056,0.1499,2
0.3827,-0.5221,0.428,-0.6305,16.087015,-109.793205,146.17844,173.80669,0.3056,0.1499,2
0.3796,-0.5218,0.4284,-0.6324,16.493723,-110.05825,145.79971,174.22678,0.2783,0.1098,2
0.3764,-0.5212,0.4292,-0.6343,16.888548,-110.288605,145.47586,174.71126,0.2285,0.0942,2
0.3732,-0.5207,0.43,-0.636,17.245037,-110.511696,145.14615,175.24689,0.1879,0.0844,2
0.3703,-0.5204,0.4307,-0.6375,17.99643,-110.71806,144.82884,175.76459,0.1577,0.1098,2
0.3634,-0.5218,0.4319,-0.6395,17.986893,-111.24696,143.81796,177.47229,0.0834,0.1215,2
0.3626,-0.5234,0.4323,-0.6383,17.795527,-111.280815,143.571,178.13504,0.0649,0.0351,2
0.3629,-0.526,0.4327,-0.6358,17.505968,-111.22229,143.36926,178.87483,0.0815,-0.0141,2
0.364,-0.5294,0.4323,-0.6326,17.198517,-111.16888,143.13365,179.49525,0.124,-0.0273,2
0.3657,-0.5335,0.4304,-0.6294,16.873432,-111.215416,142.78775,179.80127,0.2114,-0.0175,2
0.3681,-0.5384,0.427,-0.6261,16.496468,-111.35561,142.33415,179.79427,0.288,0.0258,2
0.3715,-0.5435,0.4228,-0.6226,16.102715,-111.48832,141.93774,179.4559,0.3427,0.1059,2
0.3754,-0.5478,0.4188,-0.6192,15.205853,-111.54216,141.71935,178.90271,0.3603,0.1635,2
0.3838,-0.5535,0.4138,-0.6123,14.628046,-111.25919,141.94527,177.85529,0.2963,0.1088,2
0.3886,-0.5554,0.4128,-0.6082,13.921376,-110.89925,142.39102,177.47716,0.2724,0.0039,2
0.3942,-0.5572,0.4125,-0.6032,13.1027975,-110.3913,143.04784,177.20697,0.2744,-0.1313,2
0.4006,-0.5594,0.4124,-0.5968,5.0088725,-109.76949,143.84508,177.09505,0.29,-0.2377,2
0.4662,-0.5531,0.4297,-0.5403,4.1025257,-101.23809,158.10356,175.94785,0.4331,0.1796,2
0.4674,-0.5469,0.4382,-0.5387,3.411971,-100.261246,159.97601,176.61284,0.3496,0.1425,2
0.4684,-0.5407,0.4464,-0.5373,3.0068774,-99.31805,161.79086,177.18066,0.2661,0.1103,2
0.4696,-0.5347,0.4537,-0.5362,2.9032435,-98.43464,163.50285,177.52612,0.1777,0.0869,2
0.4712,-0.5295,0.4596,-0.5349,2.936267,-97.63787,165.0516,177.7028,0.1049,0.0678,2
0.4737,-0.5252,0.4638,-0.5333,3.0057106,-96.91524,166.463,177.64427,0.0639,0.06,2
0.4773,-0.522,0.4663,-0.5311,6.799374,-96.24987,167.76033,177.40482,0.0253,0.0336,2
0.5234,-0.5109,0.4626,-0.5008,7.5754514,-91.212166,177.00154,173.95218,0.2211,-0.0488,2
0.529,-0.5077,0.4637,-0.4973,8.291289,-90.40785,178.43889,173.60362,0.225,-0.0537,2
0.5338,-0.5039,0.4654,-0.4944,8.946253,-89.61957,179.84898,173.29137,0.2197,-0.0424,2
0.5376,-0.4996,0.4681,-0.4921,9.551963,-88.84952,181.25063,173.08728,0.2026,-0.0288,2
0.5403,-0.4948,0.4718,-0.4903,10.128422,-88.10003,182.65015,173.00153,0.1884,-0.0229,2
0.542,-0.4898,0.4765,-0.4889,10.665148,-87.37872,184.04176,173.05708,0.1586,-0.0307,2
0.5425,-0.485,0.4821,-0.4878,11.199515,-86.72297,185.369,173.30414,0.123,-0.0322,2
0.5421,-0.4801,0.4882,-0.4869,11.739541,-86.104126,186.6599,173.64111,0.0937,-0.0341,2
0.5411,-0.4752,0.4946,-0.4863,12.331278,-85.52198,187.89822,174.01317,0.0693,-0.0429,2
0.54,-0.4702,0.5012,-0.4858,12.962357,-84.93177,189.15144,174.37465,0.0385,-0.0629,2
0.5388,-0.4652,0.5076,-0.4851,13.547806,-84.34232,190.39795,174.72623,-0.0131,-0.0708,2
0.5374,-0.4607,0.5136,-0.4847,14.021588,-83.82927,191.49355,175.05466,-0.0786,-0.0786,2
0.5359,-0.4571,0.5186,-0.4846,14.396089,-83.441864,192.33423,175.33656,-0.122,-0.0756,2
0.5328,-0.4541,0.5238,-0.4851,8.275709,-83.20822,192.9219,175.77255,-0.1459,-0.0292,2
0.4898,-0.4923,0.5052,-0.5122,4.39826,-90.54774,178.92563,179.49881,0.1547,0.1005,2
0.4762,-0.5114,0.4795,-0.5306,4.486123,-94.94258,170.32668,178.12946,0.3901,0.206,2
0.4691,-0.5124,0.4793,-0.5362,4.910395,-95.7472,168.76823,178.48723,0.3247,0.186,2
0.4609,-0.5129,0.4794,-0.5427,5.5637097,-96.61938,167.08134,178.89981,0.2514,0.1132,2
0.4525,-0.5133,0.4792,-0.5495,6.2476983,-97.52908,165.33109,179.29425,0.1914,0.0156,2
0.4449,-0.5139,0.478,-0.5561,6.8352356,-98.44969,163.59305,179.52577,0.123,-0.0395,2
0.4387,-0.5149,0.4754,-0.5624,8.7423315,-99.37843,161.90256,179.46837,0.0991,-0.0341,2
0.4225,-0.5208,0.4593,-0.5823,13.629181,-102.74753,156.17107,177.99405,0.1923,0.0712,2
0.3926,-0.5144,0.449,-0.616,14.258819,-106.72152,150.47784,176.49765,0.061,-0.0122,2
0.3888,-0.513,0.4485,-0.62,14.822311,-107.133606,149.9643,176.43137,0.0117,-0.0185,2
0.3854,-0.5122,0.4473,-0.6236,15.3469925,-107.57424,149.40005,176.3104,-0.0029,-0.0097,2
0.3821,-0.5121,0.4456,-0.6268,15.832799,-108.05443,148.74814,176.24043,0.0117,-0.0102,2
0.3789,-0.5128,0.4436,-0.6296,16.256758,-108.56536,148.01031,176.27167,0.0537,-0.02,2
0.3761,-0.5141,0.4412,-0.632,16.64126,-109.0847,147.2414,176.29385,0.0795,-0.0024,2
0.3735,-0.5157,0.4386,-0.634,17.01614,-109.5985,146.46579,176.3367,0.104,0.0419,2
0.371,-0.5174,0.436,-0.6359,17.38134,-110.105446,145.70062,176.38849,0.1298,0.0693,2
0.3685,-0.5189,0.4337,-0.6376,17.732294,-110.57355,144.9928,176.4954,0.1601,0.0917,2
0.366,-0.5205,0.4318,-0.6391,18.032417,-111.00924,144.31084,176.72534,0.1933,0.1049,2
0.3637,-0.5218,0.4306,-0.6402,18.294088,-111.351105,143.75217,177.05963,0.2148,0.1313,2
0.3615,-0.5227,0.4302,-0.641,18.569643,-111.598434,143.31828,177.51228,0.2216,0.1284,2
0.359,-0.5234,0.4304,-0.6417,18.861261,-111.80759,142.91426,178.14009,0.2114,0.1093,2
0.3562,-0.5239,0.4311,-0.6423,19.162607,-111.9832,142.53198,178.92493,0.1977,0.0952,2
0.3533,-0.5246,0.4319,-0.6429,19.445839,-112.16089,142.11842,179.79323,0.2094,0.0883,2
0.3506,-0.5254,0.4323,-0.6434,19.711288,-112.34984,141.6923,180.57494,0.226,0.1181,2
0.3481,-0.5262,0.4327,-0.6439,19.927053,-112.52267,141.29153,181.3172,0.225,0.1499,2
0.3459,-0.5268,0.4334,-0.6441,19.917753,-112.62849,140.97746,182.0573,0.207,0.1494,2
0.3443,-0.5285,0.436,-0.6418,19.219698,-112.4611,140.76321,183.5091,0.1044,-0.0117,2
0.3478,-0.5368,0.4336,-0.6345,18.906103,-112.39154,140.1479,184.47696,0.2709,0.017,2
0.3502,-0.5408,0.4308,-0.6318,18.50036,-112.49281,139.82799,184.3552,0.3383,0.0693,2
0.3536,-0.5443,0.4278,-0.6289,18.03651,-112.525055,139.69391,183.89423,0.3813,0.1445,2
0.3575,-0.547,0.4254,-0.6259,17.495436,-112.4436,139.76967,183.31488,0.3671,0.1582,2
0.3619,-0.5489,0.4239,-0.6227,16.839144,-112.21903,140.0801,182.7009,0.3291,0.1088,2
0.367,-0.5504,0.4232,-0.6189,16.102375,-111.84295,140.60876,182.1153,0.3129,0.0195,2
0.3726,-0.5519,0.4229,-0.6145,15.308904,-111.37367,141.25874,181.59998,0.3344,-0.0683,2
0.3787,-0.5535,0.4224,-0.6096,13.607123,-110.86412,141.9775,181.0478,0.373,-0.1557,2
0.3927,-0.5568,0.4201,-0.5992,12.779239,-109.781715,143.61772,179.5169,0.4414,-0.1962,2
0.3998,-0.5585,0.4189,-0.5938,11.961618,-109.219376,144.474,178.82254,0.4545,-0.1796,2
0.4069,-0.5601,0.4179,-0.5881,11.196599,-108.61905,145.38797,178.23782,0.4697,-0.1254,2
0.4136,-0.5613,0.4174,-0.5827,10.483735,-108.004005,146.344,177.77072,0.4814,-0.0537,2
0.4196,-0.5618,0.4176,-0.5777,9.848033,-107.37428,147.34813,177.45152,0.4941,0.0283,2
0.4245,-0.5613,0.4186,-0.5738,9.227602,-106.77044,148.35431,177.22208,0.4941,0.1123,2
0.4284,-0.5596,0.4209,-0.5709,8.59742,-106.141396,149.44365,177.12918,0.4707,0.1323,2
0.4315,-0.5569,0.4245,-0.5686,7.342819,-105.46549,150.63846,177.20238,0.4311,0.1342,2
0.4364,-0.5497,0.4341,-0.5646,5.711968,-103.9915,153.2838,177.65137,0.3134,0.0908,2
0.4443,-0.5388,0.4459,-0.5596,5.711968,-101.943016,157.10226,177.57701,0.1796,0.0102,2
0.4443,-0.5388,0.4459,-0.5596,5.131547,-101.943016,157.10226,177.57701,0.1796,0.0102,2
0.4483,-0.5363,0.4478,-0.5575,3.7518983,-101.33037,158.26793,177.21149,0.1586,-0.0043,2
0.5035,-0.5056,0.4631,-0.5255,7.5902443,-93.431816,172.97275,172.55528,0.2319,-0.0454,2
0.5084,-0.4802,0.4897,-0.5205,8.443846,-89.98567,179.78773,173.2309,0.1469,-0.0288,2
0.5074,-0.4743,0.4962,-0.5208,9.34397,-89.38145,181.03091,173.43065,0.1088,-0.0244,2
0.5059,-0.4681,0.5029,-0.5214,10.241816,-88.79471,182.2468,173.61795,0.0634,-0.0278,2
0.5037,-0.462,0.5096,-0.5224,11.973436,-88.277664,183.33632,173.8239,-0.0107,-0.0224,2
0.4927,-0.4508,0.5238,-0.5286,11.310641,-87.89241,184.33943,174.61649,-0.1191,-0.0283,2
0.4913,-0.4581,0.5217,-0.5257,11.004254,-88.35046,183.42697,175.69867,0.0527,0.124,2
0.4888,-0.4617,0.5211,-0.5255,10.53679,-88.72817,182.6893,176.34834,0.0317,0.1831,2
0.4848,-0.4661,0.5195,-0.5269,9.972986,-89.38453,181.40044,176.98172,0.0483,0.2021,2
0.4804,-0.4707,0.5169,-0.5295,9.370029,-90.19867,179.79445,177.45372,0.0678,0.1655,2
0.4762,-0.4752,0.5135,-0.5326,8.767991,-91.068855,178.07782,177.7552,0.1279,0.0898,2
0.4726,-0.4797,0.5097,-0.5353,8.1356945,-91.90384,176.42805,177.989,0.2451,0.038,2
0.4703,-0.4841,0.5054,-0.5375,7.4769697,-92.658165,174.94547,178.0474,0.3583,0.0517,2
0.4698,-0.4879,0.5007,-0.5389,6.819877,-93.25153,173.79576,177.84079,0.4008,0.0991,2
0.4706,-0.4912,0.496,-0.5394,6.270654,-93.68795,172.95656,177.49854,0.4155,0.1557,2
0.4723,-0.4942,0.4924,-0.5386,5.952588,-93.91552,172.5041,177.28375,0.4228,0.1733,2
0.4745,-0.4964,0.4906,-0.5363,5.7903647,-93.88115,172.53983,177.30923,0.4433,0.1279,2
0.4766,-0.4978,0.4897,-0.5339,5.7488537,-93.751205,172.7644,177.37856,0.4628,0.0815,2
0.4779,-0.498,0.4894,-0.5328,5.811783,-93.639854,172.97354,177.33005,0.4887,0.0522,2
0.478,-0.4969,0.4897,-0.5335,6.023245,-93.59309,173.08084,177.14221,0.5126,0.0708,2
0.4763,-0.4948,0.4909,-0.5359,12.139487,-93.64234,173.02065,176.9753,0.4926,0.0957,2
0.4154,-0.4834,0.5035,-0.5832,12.430106,-98.496086,163.84384,180.30408,-0.1918,-0.1137,2
0.411,-0.485,0.5001,-0.5878,12.350962,-99.30838,162.42088,180.26328,-0.1674,-0.0927,2
0.4032,-0.4985,0.4782,-0.6,12.518915,-102.54742,157.00597,178.96399,0.1987,0.1782,2
0.4012,-0.5009,0.4738,-0.6029,12.928585,-103.230606,155.91037,178.64526,0.2343,0.2285,2
0.3981,-0.5016,0.4712,-0.6063,13.511906,-103.8054,155.0196,178.4901,0.2084,0.2143,2
0.3942,-0.5012,0.4699,-0.6103,14.156904,-104.32159,154.2512,178.45686,0.1635,0.1508,2
0.39,-0.5002,0.4691,-0.6144,14.73713,-104.79966,153.56712,178.46909,0.121,0.0693,2
0.3863,-0.4993,0.4682,-0.6182,15.2090225,-105.2433,152.95433,178.43306,0.0859,0.0058,2
0.3833,-0.4988,0.4668,-0.6215,15.60417,-105.671104,152.3761,178.3099,0.0834,-0.0039,2
0.3808,-0.4987,0.4648,-0.6245,15.937314,-106.11245,151.78844,178.09146,0.0913,0.0122,2
0.3788,-0.4989,0.4625,-0.6273,16.259243,-106.54702,151.2224,177.79434,0.125,0.0395,2
0.3769,-0.4994,0.4598,-0.6301,16.61322,-107.01592,150.61026,177.4521,0.1376,0.0581,2
0.3747,-0.5001,0.457,-0.6329,16.981781,-107.518654,149.93579,177.1782,0.1572,0.0781,2
0.3723,-0.5008,0.4544,-0.6355,17.358616,-108.00978,149.26582,177.00108,0.1767,0.0751,2
0.3698,-0.5016,0.4521,-0.638,17.71261,-108.48605,148.6039,176.92421,0.1767,0.0742,2
0.3673,-0.5025,0.4502,-0.6401,18.398518,-108.919205,147.97676,176.98537,0.187,0.0678,2
0.3622,-0.5044,0.447,-0.6437,18.7573,-109.72423,146.77168,177.3412,0.2573,0.0981,2
0.3595,-0.5048,0.4463,-0.6454,21.073666,-110.043724,146.28998,177.65248,0.2812,0.0961,2
0.3415,-0.503,0.4486,-0.6549,21.169735,-111.352104,144.19603,180.72008,0.1621,0.0742,2
0.3401,-0.5031,0.4503,-0.6544,21.191095,-111.27769,144.12288,181.43376,0.1376,0.0126,2
0.3391,-0.5038,0.4517,-0.6534,21.199812,-111.19742,144.01323,182.15439,0.1464,-0.0058,2
0.3381,-0.5052,0.4524,-0.6523,21.191,-111.18935,143.77133,182.8769,0.2036,0.0043,2
0.3373,-0.5072,0.4522,-0.6513,21.141449,-111.266624,143.41957,183.48157,0.267,0.0502,2
0.337,-0.5094,0.4514,-0.6504,21.07488,-111.37722,143.0669,183.88347,0.2846,0.1162,2
0.337,-0.5114,0.4503,-0.6496,20.94395,-111.49433,142.75731,184.11627,0.2709,0.1562,2
0.3376,-0.513,0.4495,-0.6486,20.295122,-111.531784,142.59814,184.21379,0.2221,0.1464,2
0.3414,-0.5161,0.4491,-0.6443,17.790976,-111.25127,142.74742,184.25285,0.125,0.0151,2
0.3576,-0.5248,0.448,-0.6292,16.672567,-110.00741,144.0364,183.52419,0.2158,-0.1894,2
0.3652,-0.5289,0.4461,-0.6226,15.523829,-109.55029,144.57913,182.95355,0.2797,-0.2011,2
0.3733,-0.5331,0.4438,-0.6159,13.279683,-109.08706,145.17595,182.27385,0.3471,-0.163,2
0.3898,-0.5399,0.4394,-0.6028,12.225059,-108.05032,146.6872,180.75081,0.455,-0.0283,2
0.3975,-0.5418,0.4387,-0.5965,11.241227,-107.39433,147.69824,180.18929,0.4794,0.0454,2
0.4045,-0.5427,0.4393,-0.5906,10.363008,-106.66311,148.85205,179.84267,0.498,0.1191,2
0.4104,-0.5422,0.4413,-0.5854,9.639916,-105.874825,150.13814,179.69228,0.4809,0.1567,2
0.415,-0.5404,0.4444,-0.5814,9.018056,-105.093414,151.46301,179.65063,0.4526,0.1518,2
0.4188,-0.5377,0.4485,-0.578,8.461006,-104.2833,152.86307,179.7237,0.3955,0.1186,2
0.4223,-0.5345,0.4531,-0.5748,7.93773,-103.44497,154.3346,179.8339,0.3149,0.0859,2
0.426,-0.5312,0.4573,-0.5719,7.419806,-102.63126,155.80846,179.79121,0.2446,0.0566,2
0.43,-0.5281,0.4609,-0.5689,6.870429,-101.84284,157.26323,179.6465,0.1821,0.0419,2
0.4345,-0.5255,0.4636,-0.5657,6.283092,-101.09584,158.665,179.38269,0.1523,0.0097,2
0.4394,-0.5235,0.4653,-0.5623,5.6142826,-100.40657,159.97467,179.02357,0.124,-0.0151,2
0.445,-0.5221,0.466,-0.5587,4.8537483,-99.75474,161.22862,178.53093,0.1342,-0.038,2
0.4512,-0.5212,0.4656,-0.5547,4.0347123,-99.13422,162.42592,177.92577,0.1396,-0.0302,2
0.4579,-0.5208,0.4644,-0.5506,3.2211988,-98.54568,163.55548,177.23631,0.1655,-0.0268,2
0.4648,-0.5206,0.4628,-0.5465,2.4866984,-97.971535,164.64194,176.51729,0.1953,-0.0244,2
0.4718,-0.5201,0.4612,-0.5423,2.02479,-97.36166,165.77824,175.79335,0.2236,-0.0175,2
0.4786,-0.5192,0.4602,-0.5379,2.0033169,-96.69241,167.00821,175.19318,0.2338,-0.0214,2
0.4852,-0.5175,0.46,-0.5338,2.4481788,-95.95746,168.35791,174.63353,0.2529,-0.0258,2
0.4914,-0.5149,0.4609,-0.5298,5.64174,-95.14041,169.864,174.1918,0.2768,-0.0361,2
0.5107,-0.4977,0.4729,-0.5174,6.512829,-91.57705,176.53198,173.17825,0.2036,-0.0493,2
0.5134,-0.4925,0.4779,-0.515,6.512829,-90.70986,178.20508,173.24481,0.1806,-0.0502,2
0.5134,-0.4925,0.4779,-0.515,8.114469,-90.70986,178.20508,173.24481,0.1806,-0.0502,2
0.5157,-0.4822,0.489,-0.512,8.865753,-89.222534,181.14804,173.59888,0.143,-0.0688,2
0.5157,-0.4773,0.4948,-0.5111,9.656181,-88.585754,182.4386,173.85733,0.1503,-0.0551,2
0.5154,-0.4721,0.5008,-0.5103,10.475948,-87.942665,183.74539,174.10721,0.1313,-0.061,2
0.5147,-0.4667,0.5071,-0.5098,11.282693,-87.31135,185.03636,174.35681,0.0859,-0.0551,2
0.5133,-0.4612,0.5134,-0.5098,12.98319,-86.74229,186.21388,174.59026,0.0175,-0.0444,2
0.5067,-0.4497,0.5278,-0.5122,11.567888,-85.83757,188.17603,175.25479,-0.1376,-0.0322,2
0.5,-0.4628,0.5228,-0.5122,9.312865,-87.27403,185.44287,176.90273,0.1425,0.1015,2
0.4781,-0.4782,0.514,-0.5276,8.3112335,-90.80761,178.51837,178.5,0.2441,0.121,2
0.4723,-0.4837,0.5071,-0.5344,8.3112335,-92.242546,175.72472,178.30283,0.1962,0.1376,2
0.4723,-0.4837,0.5071,-0.5344,8.104912,-92.242546,175.72472,178.30283,0.1962,0.1376,2
0.4709,-0.4859,0.5059,-0.5348,7.9353366,-92.5382,175.12123,178.55582,0.1938,0.0888,2
0.4694,-0.4883,0.505,-0.5348,7.7883916,-92.80935,174.55098,178.92885,0.2348,0.0659,2
0.4677,-0.4905,0.5041,-0.5351,7.6183357,-93.09752,173.94817,179.27174,0.3037,0.0205,2
0.4661,-0.492,0.5027,-0.5364,7.220989,-93.42931,173.2906,179.34467,0.3691,0.0078,2
0.46,-0.4934,0.497,-0.5456,7.441414,-94.726036,170.88867,178.5618,0.4189,0.1938,2
0.455,-0.494,0.4965,-0.5498,7.822777,-95.31821,169.74655,178.76503,0.3325,0.1801,2
0.4488,-0.4949,0.4963,-0.5542,8.363563,-95.987206,168.42752,179.20505,0.2446,0.1347,2
0.4419,-0.4953,0.496,-0.5596,9.028123,-96.73042,166.98677,179.57974,0.2236,0.1171,2
0.4349,-0.4951,0.4957,-0.5655,9.616251,-97.47458,165.57639,179.86432,0.1748,0.0449,2
0.4286,-0.4953,0.4942,-0.5715,10.01399,-98.28064,164.10341,179.95511,0.1235,-0.0415,2
0.4236,-0.4964,0.491,-0.577,10.26037,-99.13981,162.59296,179.81339,0.0986,-0.0708,2
0.4198,-0.4983,0.4867,-0.5817,14.450176,-99.99674,161.12375,179.53535,0.103,-0.0405,2
0.3866,-0.5023,0.4693,-0.6146,15.4538355,-105.092896,152.85321,179.41885,0.1767,0.0585,2
0.3802,-0.4995,0.4703,-0.6201,16.460384,-105.56617,152.20023,179.73456,0.1318,0.0327,2
0.374,-0.4963,0.4712,-0.6258,17.458115,-106.02618,151.62732,179.939,0.0966,0.0268,2
0.3679,-0.4929,0.472,-0.6314,18.391392,-106.472305,151.10818,180.11414,0.0385,0.0302,2
0.3623,-0.4897,0.4725,-0.6368,19.206924,-106.9087,150.63321,180.21677,0.0039,0.0258,2
0.3573,-0.4869,0.473,-0.6413,19.890678,-107.27856,150.23015,180.38063,-0.0356,0.017,2
0.353,-0.485,0.4729,-0.6452,20.435776,-107.65743,149.79121,180.5268,-0.0546,0.0288,2
0.3495,-0.4839,0.4722,-0.6485,20.891155,-108.03632,149.33937,180.6132,-0.0488,0.038,2
0.3464,-0.4835,0.4711,-0.6513,21.230877,-108.42375,148.84387,180.72607,-0.0209,0.0507,2
0.3439,-0.4837,0.4697,-0.6534,21.506855,-108.78667,148.35251,180.84184,0.0019,0.0488,2
0.3417,-0.4847,0.4677,-0.6553,21.678408,-109.199104,147.76807,180.94887,0.0317,0.0463,2
0.3401,-0.4861,0.4657,-0.6565,21.819561,-109.556725,147.22908,181.06859,0.0625,0.04,2
0.3371,-0.493,0.4595,-0.6573,21.901833,-110.50017,145.5549,181.74908,0.2299,0.1113,2
0.3361,-0.4941,0.4588,-0.6575,22.058302,-110.659515,145.23999,182.0217,0.2641,0.145,2
0.3346,-0.4946,0.4587,-0.6579,22.294836,-110.78604,144.97229,182.39543,0.2841,0.1782,2
0.3327,-0.4943,0.4592,-0.6587,22.589384,-110.87705,144.78658,182.79091,0.2788,0.2006,2
0.3306,-0.4931,0.4605,-0.6598,22.830664,-110.89682,144.73529,183.18802,0.2558,0.1909,2
0.3288,-0.4918,0.4623,-0.6604,22.852041,-110.82883,144.77356,183.6376,0.1733,0.0937,2
0.3284,-0.4911,0.4644,-0.6597,22.48146,-110.61576,144.95268,184.04388,0.0844,0.0292,2
0.33,-0.4925,0.4665,-0.6563,20.000793,-110.22863,145.16653,184.62024,0.0288,0.0107,2
0.3437,-0.513,0.453,-0.6428,17.69987,-110.62902,143.72253,184.05927,0.3896,0.1601,2
0.3599,-0.5204,0.4481,-0.6314,13.687736,-109.81673,144.84802,182.06401,0.3359,-0.0141,2
0.3887,-0.5271,0.4443,-0.6111,11.86959,-107.625465,148.20103,178.90044,0.4013,-0.123,2
0.4016,-0.5289,0.4439,-0.6015,11.022422,-106.438644,150.06071,177.83089,0.4438,-0.0136,2
0.4074,-0.5286,0.4451,-0.5969,10.215545,-105.74351,151.18088,177.51486,0.4306,0.0322,2
0.4128,-0.5277,0.4471,-0.5924,9.488481,-104.99758,152.40149,177.33669,0.4125,0.0722,2
0.4176,-0.5261,0.4501,-0.5882,8.873647,-104.20726,153.71716,177.31499,0.3725,0.0927,2
0.4217,-0.524,0.4537,-0.5844,8.339604,-103.4197,155.05,177.40123,0.3442,0.0932,2
0.4254,-0.5217,0.4576,-0.5807,7.897048,-102.63403,156.39253,177.56393,0.3081,0.0888,2
0.4288,-0.5192,0.4618,-0.5772,7.524449,-101.84868,157.7519,177.76784,0.2656,0.0795,2
0.432,-0.5168,0.4655,-0.5739,6.836952,-101.12251,159.02936,177.91066,0.2114,0.0644,2
0.4389,-0.5126,0.4715,-0.5675,6.436972,-99.76731,161.47037,177.96082,0.1601,0.0024,2
0.443,-0.511,0.4734,-0.5641,5.966811,-99.132576,162.64009,177.82243,0.1459,-0.019,2
0.4477,-0.51,0.4746,-0.5604,5.4323225,-98.51832,163.77734,177.61928,0.1367,-0.0346,2
0.4529,-0.5094,0.475,-0.5564,4.871976,-97.92547,164.88158,177.33257,0.144,-0.0522,2
0.4585,-0.5091,0.4749,-0.5521,4.3522553,-97.33578,165.9794,177.01164,0.1567,-0.0703,2
0.4643,-0.509,0.4746,-0.5477,3.715109,-96.748795,167.06955,176.69286,0.1708,-0.0615,2
0.4757,-0.5078,0.474,-0.5394,3.733196,-95.551895,169.30284,175.96262,0.2153,-0.0615,2
0.4811,-0.5064,0.4744,-0.5356,3.9853785,-94.90353,170.51657,175.62418,0.2402,-0.0463,2
0.4861,-0.5046,0.4754,-0.5318,4.457192,-94.22387,171.79024,175.38681,0.2509,-0.0444,2
0.4906,-0.5022,0.4774,-0.5283,5.0310345,-93.50298,173.15196,175.2504,0.2583,-0.0375,2
0.4942,-0.4995,0.48,-0.5251,8.5987425,-92.80635,174.47893,175.23582,0.2485,-0.0292,2
0.5015,-0.4801,0.502,-0.5156,9.306944,-89.5191,180.93324,176.00446,0.1479,-0.0263,2
0.5008,-0.4759,0.5072,-0.515,10.015899,-89.00144,181.98001,176.27171,0.1098,-0.0312,2
0.4999,-0.4716,0.5124,-0.5147,10.697225,-88.504814,182.98561,176.50137,0.0747,-0.0488,2
0.4988,-0.4674,0.5174,-0.5147,11.323941,-88.0522,183.90396,176.6953,0.039,-0.0488,2
0.4976,-0.4634,0.5219,-0.5149,11.854164,-87.65458,184.71144,176.83495,0.0004,-0.062,2
0.4965,-0.4598,0.5256,-0.5154,12.437372,-87.33496,185.3614,176.88258,-0.04,-0.0629,2
0.4944,-0.4557,0.5298,-0.5167,12.409491,-87.0629,185.92648,176.93983,-0.0605,-0.0234,2
0.4934,-0.4558,0.5299,-0.5175,12.263903,-87.16758,185.72787,176.98286,-0.0209,0.0185,2
0.4924,-0.4568,0.5293,-0.5182,10.112937,-87.357025,185.35881,177.06743,0.041,0.0322,2
0.4732,-0.4757,0.5202,-0.5282,9.612754,-90.61516,178.8366,179.42416,0.1367,0.1518,2
0.4685,-0.479,0.5167,-0.5328,9.162226,-91.5376,177.00998,179.50122,0.1684,0.1347,2
0.4645,-0.4821,0.5131,-0.537,8.677314,-92.39262,175.33083,179.5046,0.2446,0.1137,2
0.4618,-0.4846,0.5087,-0.5411,8.218248,-93.18512,173.8242,179.18338,0.2612,0.1201,2
0.4602,-0.4868,0.5044,-0.5446,7.7845006,-93.856895,172.575,178.75066,0.2402,0.1342,2
0.4598,-0.4887,0.5005,-0.5468,7.3825307,-94.3426,171.68723,178.30716,0.205,0.1176,2
0.46,-0.4908,0.4973,-0.5478,7.0944743,-94.692,171.03745,178.02425,0.2241,0.1,2
0.4601,-0.4927,0.4952,-0.5479,6.9022956,-94.919556,170.59464,177.96785,0.2944,0.0498,2
0.4604,-0.4936,0.4937,-0.5482,6.669807,-95.056335,170.34294,177.81233,0.3476,-0.0209,2
0.461,-0.4939,0.4915,-0.5494,6.3943944,-95.23313,170.05165,177.34534,0.3798,-0.0336,2
0.461,-0.4946,0.4885,-0.5513,6.3109307,-95.551384,169.49579,176.8164,0.4277,0.0249,2
0.46,-0.495,0.4867,-0.5534,6.4713764,-95.85401,168.95888,176.51398,0.4355,0.1005,2
0.4567,-0.4955,0.4857,-0.5566,7.390756,-96.317726,168.11101,176.51164,0.3881,0.1206,2
0.4455,-0.4966,0.4845,-0.5656,8.138864,-97.62817,165.6987,176.99258,0.2885,0.1274,2
0.4385,-0.4967,0.4843,-0.5712,8.978847,-98.37888,164.3313,177.3374,0.2436,0.123,2
0.4311,-0.4968,0.4839,-0.5771,9.760654,-99.17993,162.88226,177.71225,0.187,0.0502,2
0.4243,-0.4971,0.4827,-0.5828,10.462344,-99.99194,161.4433,177.96605,0.1357,0.0014,2
0.4183,-0.4977,0.4806,-0.5884,11.023355,-100.821846,160.01877,178.04312,0.0771,0.0063,2
0.4135,-0.4986,0.4776,-0.5934,11.4759245,-101.61984,158.69736,177.9215,0.0747,0.0024,2
0.4096,-0.5,0.474,-0.5978,12.911753,-102.39452,157.43842,177.70558,0.0751,0.0302,2
0.3983,-0.5082,0.4568,-0.6117,19.601347,-105.3361,152.79596,176.4152,0.2875,0.1821,2
0.3544,-0.5053,0.4419,-0.6508,19.711866,-110.96199,145.17154,177.37509,0.2509,0.1293,2
0.3532,-0.5055,0.4426,-0.6509,19.852724,-111.00039,145.04045,177.79755,0.2622,0.1381,2
0.3517,-0.5054,0.4437,-0.651,20.045902,-111.01446,144.9349,178.31618,0.2529,0.1538,2
0.3499,-0.505,0.4449,-0.6514,20.27244,-111.039894,144.82922,178.83742,0.2373,0.1577,2
0.348,-0.5043,0.4463,-0.6521,20.503363,-111.05727,144.75562,179.33394,0.2309,0.164,2
0.346,-0.5036,0.4478,-0.6527,20.696724,-111.065506,144.67715,179.88474,0.2221,0.184,2
0.3443,-0.5028,0.4493,-0.6531,20.726475,-111.03963,144.65213,180.37398,0.1845,0.1518,2
0.3436,-0.5025,0.4512,-0.6525,20.558132,-110.89241,144.73492,180.90099,0.1416,0.0791,2
0.3441,-0.5026,0.4532,-0.6506,20.25813,-110.6164,144.95137,181.38258,0.1069,0.0229,2
0.3455,-0.5035,0.4549,-0.6481,19.90157,-110.31204,145.17844,181.79915,0.0991,-0.0258,2
0.3473,-0.5053,0.4553,-0.6455,19.492048,-110.11476,145.26414,182.0549,0.1362,-0.0395,2
0.3495,-0.5078,0.4545,-0.6428,19.016693,-110.00979,145.23898,182.13893,0.2001,-0.0361,2
0.3523,-0.5114,0.4522,-0.6401,18.467348,-110.02959,145.05527,182.00423,0.2641,0.0053,2
0.3557,-0.5156,0.4491,-0.637,17.931059,-110.078545,144.83138,181.73685,0.3129,0.0947,2
0.3593,-0.5194,0.4459,-0.6341,17.453455,-110.11613,144.67465,181.31677,0.3339,0.1723,2
0.3627,-0.5223,0.4434,-0.6316,16.940693,-110.09435,144.6453,180.87526,0.3364,0.1909,2
0.3664,-0.5244,0.4416,-0.6289,14.790571,-109.95741,144.81143,180.39886,0.291,0.1459,2
0.3812,-0.5302,0.4396,-0.6165,13.817383,-108.82523,146.2662,179.34546,0.2519,-0.104,2
0.388,-0.5326,0.4388,-0.6108,12.750651,-108.27876,147.00922,178.90266,0.2822,-0.1718,2
0.3956,-0.5351,0.4376,-0.6045,11.642506,-107.6796,147.85898,178.36009,0.3247,-0.2133,2
0.4037,-0.5374,0.4363,-0.598,10.530801,-107.03023,148.82388,177.74791,0.3876,-0.2031,2
0.412,-0.5393,0.4351,-0.5915,8.336013,-106.33594,149.89632,177.1128,0.437,-0.1562,2
0.4282,-0.5401,0.435,-0.5792,5.5020432,-104.69918,152.58284,175.98183,0.5083,-0.0166,2
0.4462,-0.5339,0.4445,-0.5639,4.9185696,-101.8522,157.52618,175.87263,0.4736,0.145,2
0.4495,-0.5304,0.4497,-0.5606,4.5530624,-100.97859,159.10573,176.18373,0.4355,0.1513,2
0.4519,-0.5261,0.4555,-0.5579,4.874265,-100.1154,160.69495,176.52834,0.3842,0.1406,2
0.4596,-0.5093,0.4766,-0.5496,4.9135284,-97.04475,166.47495,177.42206,0.0795,0.0161,2
0.4627,-0.5068,0.4791,-0.5471,4.7816005,-96.43513,167.64046,177.33081,0.0581,-0.0112,2
0.4667,-0.5053,0.4799,-0.5444,4.513349,-95.912384,168.64546,177.03993,0.0454,-0.0419,2
0.4716,-0.5046,0.4793,-0.5413,4.189606,-95.43506,169.5568,176.59918,0.0781,-0.039,2
0.4772,-0.5045,0.4777,-0.538,4.062304,-94.989395,170.39227,176.04695,0.1137,-0.0273,2
0.4946,-0.504,0.4725,-0.5271,4.4065623,-93.543434,172.99898,174.47812,0.2373,-0.0073,2
0.4998,-0.5031,0.4718,-0.5237,4.860784,-93.00776,173.95575,174.0906,0.2705,-0.0102,2
0.5046,-0.5017,0.4717,-0.5206,5.389805,-92.4512,174.95322,173.75142,0.2749,-0.0068,2
0.5088,-0.4998,0.4724,-0.5177,5.9555655,-91.87314,176.00218,173.51704,0.267,-0.0029,2
0.5124,-0.4973,0.4738,-0.5151,8.82062,-91.27836,177.09521,173.34514,0.2543,0.0034,2
0.5211,-0.4794,0.4901,-0.5081,11.071627,-88.439354,182.55397,173.33081,0.1679,-0.0122,2
0.5198,-0.4631,0.5079,-0.5072,11.611205,-86.58828,186.3206,173.83672,0.0517,-0.0625,2
0.519,-0.4591,0.5121,-0.5074,12.062733,-86.19332,187.13242,173.91937,0.0092,-0.0522,2
0.518,-0.4557,0.5157,-0.5078,12.508683,-85.888115,187.76888,173.99231,-0.0063,-0.0385,2
0.5101,-0.4518,0.5228,-0.512,12.435821,-86.008606,187.74512,174.64073,0.039,0.0747,2
0.5072,-0.4524,0.5238,-0.5134,12.427645,-86.247475,187.34052,174.95302,0.0766,0.0595,2
0.5043,-0.4527,0.5251,-0.5146,12.529771,-86.43942,187.02135,175.28969,0.0952,0.0629,2
0.5011,-0.4525,0.5272,-0.5158,12.661626,-86.57494,186.81236,175.6896,0.0512,0.0683,2
0.4973,-0.4521,0.5295,-0.5174,12.629516,-86.743286,186.53535,176.11081,-0.0166,0.0761,2
0.488,-0.4537,0.5323,-0.522,12.328068,-87.487404,185.14255,177.09314,-0.1245,0.0444,2
0.484,-0.4567,0.5316,-0.5239,11.91205,-88.036545,184.05942,177.60902,-0.0766,0.0629,2
0.4802,-0.4602,0.5298,-0.526,11.466846,-88.67481,182.78812,178.03432,0.0249,0.125,2
0.4764,-0.4638,0.5276,-0.5286,11.018397,-89.37014,181.39934,178.38455,0.1025,0.1274,2
0.4729,-0.4672,0.525,-0.5313,10.548299,-90.06609,180.01112,178.6294,0.1386,0.1328,2
0.47,-0.4704,0.5219,-0.5341,10.093825,-90.75277,178.65355,178.7165,0.1479,0.1445,2
0.4677,-0.4736,0.5188,-0.5363,9.607268,-91.37034,177.43211,178.79662,0.1469,0.1347,2
0.4661,-0.4769,0.5154,-0.5381,9.146322,-91.94837,176.29494,178.81015,0.1508,0.1166,2
0.4651,-0.4801,0.5122,-0.5391,8.680359,-92.428314,175.3466,178.84418,0.1684,0.0634,2
0.4648,-0.4834,0.5091,-0.5393,8.22489,-92.8214,174.56302,178.8986,0.207,-0.0063,2
0.4653,-0.4861,0.506,-0.5393,7.748813,-93.12478,173.9723,178.79488,0.2666,-0.039,2
0.4664,-0.4882,0.5026,-0.5397,7.352192,-93.40095,173.4603,178.45313,0.3217,-0.0458,2
0.4676,-0.4894,0.4996,-0.5404,7.6960573,-93.61324,173.08401,177.9967,0.3725,0.0156,2
0.4584,-0.4876,0.4977,-0.5515,8.277529,-94.79803,170.93561,177.46521,0.3466,0.1108,2
0.4524,-0.4862,0.499,-0.5566,9.032679,-95.288315,170.0307,177.6785,0.2822,0.102,2
0.4455,-0.4845,0.5008,-0.5619,9.855364,-95.79468,169.08344,178.03906,0.2104,0.0805,2
0.4384,-0.4828,0.5026,-0.5673,10.639476,-96.314705,168.1044,178.44171,0.1215,0.0522,2
0.4316,-0.4814,0.5038,-0.5726,11.340632,-96.86105,167.08148,178.80103,0.0756,0.0317,2
0.4255,-0.4803,0.5043,-0.5777,12.620414,-97.413185,166.0698,179.05351,0.0385,0.0039,2
0.4131,-0.4796,0.5005,-0.5905,12.620414,-99.06209,163.25237,178.94003,0.041,0.0195,2
0.4131,-0.4796,0.5005,-0.5905,13.001794,-99.06209,163.25237,178.94003,0.041,0.0195,2
0.4083,-0.481,0.4953,-0.5971,13.231774,-100.120705,161.55132,178.45471,0.104,0.0644,2
0.4059,-0.4815,0.4927,-0.6004,13.564771,-100.64015,160.74298,178.18155,0.1362,0.0996,2
0.4031,-0.4815,0.4906,-0.6039,14.018139,-101.137054,159.98734,177.95149,0.1474,0.1137,2
0.3999,-0.4809,0.4892,-0.6078,14.5549555,-101.60478,159.30312,177.76064,0.144,0.1098,2
0.3963,-0.4798,0.4882,-0.6118,15.154365,-102.05167,158.66917,177.61864,0.1264,0.1005,2
0.3924,-0.4783,0.4878,-0.6157,17.19111,-102.45232,158.112,177.57771,0.0947,0.0805,2
0.3786,-0.4745,0.4857,-0.6288,17.465324,-103.94823,156.0062,177.7042,-0.0244,0.0175,2
0.3763,-0.4749,0.4843,-0.6309,17.631369,-104.311615,155.45828,177.74178,-0.0004,0.0371,2
0.3747,-0.4758,0.4825,-0.6326,17.716154,-104.662254,154.92848,177.70921,0.0214,0.0498,2
0.3736,-0.4771,0.4805,-0.6339,17.702665,-104.993484,154.41722,177.65611,0.0429,0.0527,2
0.3731,-0.4787,0.4783,-0.6346,17.616907,-105.28413,153.95644,177.56915,0.0668,0.0585,2
0.3731,-0.4806,0.4758,-0.635,17.490137,-105.5629,153.513,177.41484,0.1074,0.0781,2
0.3735,-0.4824,0.4735,-0.6351,17.312744,-105.78305,153.16127,177.23001,0.1445,0.0844,2
0.3743,-0.4843,0.4713,-0.6349,16.070347,-105.96019,152.86758,177.02931,0.1655,0.0927,2
0.3818,-0.4887,0.4694,-0.6284,14.174231,-105.48872,153.38472,176.70584,0.2197,0.1054,2
0.3946,-0.4904,0.4733,-0.6161,13.864811,-103.87241,155.67407,176.67934,0.269,0.0957,2
0.3967,-0.4909,0.4732,-0.6144,13.548773,-103.6831,155.9584,176.56331,0.2592,0.1157,2
0.3988,-0.4915,0.4732,-0.6126,13.223401,-103.486565,156.2448,176.49203,0.227,0.1191,2
0.401,-0.4921,0.4729,-0.6109,12.881579,-103.30831,156.51668,176.34776,0.1918,0.1411,2
0.4033,-0.4928,0.4724,-0.6092,2.7846565,-103.14112,156.77396,176.17244,0.1733,0.1386,2
0.4709,-0.5105,0.4532,-0.5586,1.9734169,-98.09627,164.68784,171.51485,0.3496,-0.0649,2
0.4847,-0.5074,0.4589,-0.5448,1.9861652,-95.99177,168.40205,171.98344,0.2983,0.0332,2
0.4865,-0.5075,0.4593,-0.5428,2.0222235,-95.75525,168.81586,172.08267,0.3027,0.0307,2
0.4883,-0.5077,0.4595,-0.5408,2.0703871,-95.53478,169.19885,172.16566,0.3022,0.038,2
0.4901,-0.5081,0.4595,-0.5389,2.283837,-95.34124,169.53044,172.2319,0.2915,0.0229,2
0.4961,-0.5101,0.4574,-0.5333,2.4143012,-94.87581,170.27757,172.14763,0.3173,0.0278,2
0.4979,-0.5106,0.4566,-0.5317,2.5371876,-94.74212,170.48828,172.08003,0.3286,0.0341,2
0.4994,-0.5111,0.4559,-0.5304,2.6634352,-94.6389,170.64772,172.02556,0.3398,0.0263,2
0.5006,-0.5114,0.4555,-0.5293,2.8593476,-94.539604,170.80925,172.0018,0.3364,0.0156,2
0.5022,-0.5117,0.4552,-0.5278,2.9214952,-94.38832,171.06421,171.99748,0.3188,-0.0078,2
0.5026,-0.5118,0.4552,-0.5273,3.168194,-94.34248,171.14479,172.02571,0.2963,-0.0195,2
0.5029,-0.5108,0.4574,-0.526,3.310887,-94.092186,171.65077,172.35277,0.2783,-0.0673,2
0.5029,-0.51,0.459,-0.5255,3.5309613,-93.941696,171.96152,172.54955,0.2563,-0.0874,2
0.5031,-0.5086,0.461,-0.5248,3.7473383,-93.71094,172.42598,172.73448,0.246,-0.0942,2
0.5032,-0.5072,0.4631,-0.5243,3.8829951,-93.49143,172.87181,172.91716,0.2011,-0.0878,2
0.5026,-0.5063,0.465,-0.5241,3.9490228,-93.37421,173.13153,173.16847,0.185,-0.0756,2
0.5018,-0.5055,0.4664,-0.5244,3.9656854,-93.32544,173.25482,173.32281,0.186,-0.0527,2
0.5007,-0.5051,0.4675,-0.5248,3.9201493,-93.34068,173.25595,173.50322,0.2001,-0.0185,2
0.499,-0.5053,0.4685,-0.5254,3.8226151,-93.44697,173.08917,173.7832,0.1982,0.0346,2
0.4968,-0.5057,0.4693,-0.5264,3.712589,-93.628006,172.78021,174.07014,0.1899,0.0712,2
0.4942,-0.5063,0.47,-0.5275,3.63627,-93.85657,172.37915,174.40475,0.1899,0.1054,2
0.4914,-0.507,0.4709,-0.5287,3.5690882,-94.097404,171.95207,174.79454,0.1718,0.1127,2
0.4862,-0.5087,0.4723,-0.5306,3.5417511,-94.56017,171.10506,175.58304,0.1401,0.1147,2
0.484,-0.5097,0.4726,-0.5314,3.476967,-94.78564,170.6792,175.91661,0.124,0.1083,2
0.4822,-0.511,0.4724,-0.5321,3.3890805,-95.02366,170.2209,176.18347,0.1362,0.0952,2
0.4807,-0.5121,0.4718,-0.5328,3.311054,-95.25254,169.77908,176.33664,0.1528,0.0849,2
0.4795,-0.513,0.4712,-0.5335,3.1702406,-95.45062,169.39725,176.42924,0.1601,0.0537,2
0.4777,-0.5144,0.47,-0.5349,3.1176322,-95.785446,168.75487,176.4917,0.1484,0.0126,2
0.4769,-0.5148,0.4695,-0.5357,3.084137,-95.92905,168.4833,176.47617,0.142,0.0102,2
0.4759,-0.515,0.4691,-0.5368,3.086728,-96.08422,168.19449,176.44008,0.1342,0.0043,2
0.4745,-0.515,0.4688,-0.5382,3.1494625,-96.26386,167.86378,176.40987,0.1289,-0.0029,2
0.4728,-0.5151,0.4688,-0.5397,3.276523,-96.45682,167.50674,176.46208,0.123,-0.0083,2
0.4707,-0.5152,0.469,-0.5412,3.6384845,-96.66405,167.12027,176.5974,0.1289,-0.0141,2
0.4662,-0.5155,0.4697,-0.5442,3.8561094,-97.08486,166.32733,176.97195,0.142,-0.0029,2
0.4638,-0.5155,0.47,-0.546,4.1074195,-97.31434,165.89867,177.12279,0.1455,0.0151,2
0.4613,-0.5155,0.4704,-0.5478,4.4248033,-97.543816,165.46735,177.30544,0.1552,0.0361,2
0.4584,-0.5154,0.471,-0.5497,4.8030176,-97.785866,165.00806,177.55211,0.1523,0.0385,2
0.4553,-0.515,0.4719,-0.5519,5.2171636,-98.02131,164.56439,177.80122,0.1323,0.0458,2
0.452,-0.5146,0.4729,-0.5541,5.6416187,-98.26187,164.10414,178.09927,0.1206,0.0375,2
0.4487,-0.514,0.4738,-0.5565,6.070792,-98.50726,163.64233,178.34015,0.1098,0.0429,2
0.4454,-0.5135,0.4746,-0.559,6.4503617,-98.76823,163.15125,178.57411,0.101,0.0454,2
0.4424,-0.5132,0.4751,-0.5612,6.7707677,-99.0227,162.6699,178.7891,0.0942,0.0512,2
0.4398,-0.5131,0.4752,-0.5633,7.0529003,-99.28212,162.1873,178.93015,0.0981,0.0644,2
0.4374,-0.5132,0.475,-0.5652,7.2853065,-99.547356,161.69424,179.05225,0.1064,0.0756,2
0.4354,-0.5134,0.4747,-0.5668,7.4896383,-99.78343,161.25623,179.15111,0.1162,0.0917,2
0.4337,-0.5136,0.4744,-0.5683,7.6560116,-99.99588,160.8671,179.2179,0.122,0.0878,2
0.7453,-0.5927,0.2931,-0.0846,0.04255546,-71.26602,213.30807,199.5796,-0.3359,0.1059,3
0.7453,-0.5926,0.2934,-0.0848,0.086500764,-71.252686,213.3274,199.57425,-0.3505,0.1044,3
0.7452,-0.5925,0.2937,-0.085,0.16561002,-71.24458,213.34958,199.5748,-0.3666,0.0971,3
0.7451,-0.5922,0.2943,-0.0852,0.16205385,-71.20594,213.41672,199.59067,-0.374,0.0952,3
0.7451,-0.5923,0.2943,-0.0852,0.080893554,-71.2142,213.41513,199.59576,-0.3745,0.0942,3
0.7452,-0.5925,0.2937,-0.0843,0.074247375,-71.213264,213.43375,199.66525,-0.3662,0.104,3
0.7453,-0.5926,0.2935,-0.0841,0.0742689,-71.21671,213.42548,199.67323,-0.3422,0.1035,3
0.7452,-0.5927,0.2935,-0.0841,0.0742689,-71.23019,213.42679,199.68427,-0.3525,0.1132,3
0.7452,-0.5927,0.2935,-0.0841,0.06582521,-71.23019,213.42679,199.68427,-0.352,0.1191,3
0.7452,-0.5927,0.2935,-0.0842,0.058403615,-71.234665,213.41476,199.67134,-0.3613,0.1196,3
0.7452,-0.5927,0.2935,-0.0843,0.06758616,-71.239136,213.40274,199.65842,-0.3574,0.1201,3
0.7452,-0.5927,0.2936,-0.0843,0.08022379,-71.23445,213.41666,199.66693,-0.3681,0.123,3
0.7451,-0.5927,0.2937,-0.0843,0.090163425,-71.234985,213.43347,199.6814,-0.374,0.1132,3
0.7451,-0.5927,0.2938,-0.0843,0.09096477,-71.2303,213.44739,199.6899,-0.3784,0.1108,3
0.7452,-0.5926,0.2937,-0.0841,0.08721235,-71.21256,213.4562,199.6962,-0.3701,0.1074,3
0.7453,-0.5927,0.2934,-0.0839,0.115169145,-71.2207,213.434,199.69566,-0.3637,0.0971,3
0.7454,-0.5927,0.2931,-0.0836,0.1615798,-71.2161,213.42538,199.70296,-0.3598,0.102,3
0.7455,-0.5928,0.2926,-0.0833,0.21592674,-71.22914,213.38733,199.6983,-0.3549,0.1025,3
0.7456,-0.593,0.2922,-0.083,0.28022596,-71.24575,213.36165,199.70721,-0.3496,0.0942,3
0.7457,-0.5932,0.2917,-0.0827,0.33860648,-71.267044,213.32202,199.70758,-0.3413,0.1054,3
0.7457,-0.5934,0.2913,-0.0824,0.38249025,-71.28891,213.29924,199.72235,-0.3417,0.0996,3
0.7457,-0.5936,0.291,-0.0822,0.40043882,-71.310555,213.27838,199.73273,-0.3378,0.1049,3
0.7457,-0.5937,0.2908,-0.0822,0.36851162,-71.32816,213.24896,199.72067,-0.3349,0.1127,3
0.7456,-0.5937,0.2909,-0.0825,0.32187185,-71.34208,213.22972,199.6963,-0.3393,0.1118,3
0.7455,-0.5937,0.2912,-0.0828,0.2719154,-71.346634,213.23836,199.68906,-0.3437,0.1079,3
0.7454,-0.5936,0.2915,-0.0831,0.23031238,-71.34296,213.24852,199.67676,-0.3559,0.102,3
0.7453,-0.5935,0.2917,-0.0834,0.19615218,-71.34396,213.24474,199.6559,-0.3579,0.0966,3
0.7453,-0.5934,0.2919,-0.0836,0.19615218,-71.335266,213.25012,199.64206,-0.3837,0.102,3
0.7453,-0.5934,0.2919,-0.0836,0.21743006,-71.335266,213.25012,199.64206,-0.3701,0.102,3
0.7453,-0.5935,0.2917,-0.0836,0.23956059,-71.35287,213.22067,199.63,-0.3652,0.1147,3
0.7453,-0.5936,0.2915,-0.0836,0.2534147,-71.37046,213.19122,199.61797,-0.352,0.1123,3
0.7453,-0.5937,0.2914,-0.0836,0.24864501,-71.38339,213.1757,199.61446,-0.3476,0.1118,3
0.7452,-0.5937,0.2914,-0.0837,0.24088296,-71.3931,213.1665,199.60744,-0.3466,0.1157,3
0.7452,-0.5938,0.2915,-0.0838,0.21646838,-71.40112,213.16684,199.60812,-0.3549,0.1044,3
0.7451,-0.5938,0.2917,-0.084,0.20975754,-71.40593,213.1735,199.60529,-0.3671,0.1,3
0.745,-0.5938,0.2918,-0.084,0.20595096,-71.4065,213.19029,199.6198,-0.3813,0.0942,3
0.745,-0.5938,0.2919,-0.0839,0.22976209,-71.39737,213.21631,199.64131,-0.3803,0.0927,3
0.7451,-0.5938,0.2917,-0.0837,0.26433197,-71.39256,213.20964,199.64413,-0.3823,0.0908,3
0.7452,-0.5938,0.2914,-0.0835,0.3202644,-71.39245,213.18904,199.6384,-0.3691,0.0937,3
0.7453,-0.5939,0.291,-0.0832,0.38604766,-71.400795,213.16496,199.64212,-0.3598,0.0981,3
0.7454,-0.594,0.2905,-0.0829,0.4331949,-71.41381,213.12692,199.63724,-0.3447,0.1103,3
0.7456,-0.5941,0.2901,-0.0828,0.4601167,-71.42579,213.07588,199.60907,-0.3354,0.1206,3
0.7456,-0.5942,0.2898,-0.0829,0.40044403,-71.45247,213.02043,199.57538,-0.3251,0.1259,3
0.7455,-0.5941,0.2901,-0.0835,0.21804476,-71.46208,212.99443,199.52425,-0.311,0.1289,3
0.7453,-0.5935,0.2914,-0.0849,0.16042095,-71.42467,213.02225,199.43594,-0.3486,0.1171,3
0.745,-0.593,0.2928,-0.0859,0.13786283,-71.37847,213.11342,199.41882,-0.3955,0.0864,3
0.7451,-0.5929,0.2927,-0.0857,0.13799961,-71.36072,213.12238,199.42514,-0.393,0.0844,3
0.7452,-0.5931,0.2923,-0.0854,0.18761036,-71.37725,213.09671,199.43398,-0.3735,0.0683,3
0.7453,-0.5933,0.2917,-0.0852,0.25054172,-71.407524,213.03113,199.41267,-0.3593,0.081,3
0.7455,-0.5934,0.2911,-0.0851,0.29663762,-71.4287,212.95226,199.36739,-0.3461,0.0844,3
0.7456,-0.5934,0.2907,-0.0852,0.3194431,-71.44641,212.88159,199.31415,-0.3315,0.1015,3
0.7457,-0.5933,0.2906,-0.0856,0.32210675,-71.45519,212.81825,199.24274,-0.3413,0.1147,3
0.7456,-0.5931,0.291,-0.0864,0.37504137,-71.46082,212.78366,199.16919,-0.3403,0.1313,3
0.7454,-0.5928,0.2918,-0.0876,0.5060513,-71.46273,212.761,199.079,-0.3583,0.1318,3
0.7451,-0.5924,0.293,-0.089,0.6980306,-71.45216,212.7743,198.99806,-0.3911,0.1176,3
0.7447,-0.592,0.2943,-0.0905,0.9151347,-71.44685,212.79202,198.91858,-0.4165,0.1049,3
0.7444,-0.5915,0.2957,-0.092,1.0890877,-71.42355,212.82254,198.8366,-0.4497,0.0937,3
0.7442,-0.591,0.2966,-0.0932,1.2111716,-71.40487,212.81685,198.74457,-0.4775,0.0805,3
0.7441,-0.5907,0.2971,-0.0941,1.2986948,-71.402504,212.78552,198.6614,-0.4995,0.0717,3
0.7442,-0.5907,0.2967,-0.0951,1.2922028,-71.460106,212.60593,198.49182,-0.4946,0.0805,3
0.7443,-0.5909,0.296,-0.0953,1.3020787,-71.5122,212.4778,198.41016,-0.4853,0.0986,3
0.7443,-0.5912,0.2953,-0.0956,1.318046,-71.58217,212.33826,198.32634,-0.4677,0.0864,3
0.7441,-0.5922,0.2939,-0.096,1.3405327,-71.756645,212.08098,198.21617,-0.4545,0.0747,3
0.7438,-0.5928,0.2932,-0.0962,1.373544,-71.86273,211.95529,198.17752,-0.455,0.062,3
0.7434,-0.5935,0.2927,-0.0964,1.4780568,-71.97331,211.85806,198.16707,-0.4702,0.0444,3
0.7423,-0.5966,0.2893,-0.0959,1.5305406,-72.42033,211.41263,198.15541,-0.5078,0.0346,3
0.7422,-0.5976,0.2876,-0.0953,1.622197,-72.55912,211.23161,198.13931,-0.498,0.0498,3
0.7422,-0.5987,0.2857,-0.0946,1.7424933,-72.70546,211.03049,198.11674,-0.4746,0.0722,3
0.7422,-0.5998,0.2837,-0.0937,1.8973938,-72.847725,210.84,198.1104,-0.4482,0.0795,3
0.7421,-0.6008,0.2818,-0.093,2.0764005,-72.99133,210.64296,198.08662,-0.435,0.0913,3
0.742,-0.602,0.28,-0.0923,2.2796805,-73.14693,210.45645,198.0809,-0.4179,0.0805,3
0.7416,-0.6033,0.2782,-0.0915,2.506807,-73.32313,210.28773,198.10986,-0.4082,0.0727,3
0.7412,-0.6048,0.2765,-0.0909,2.7380567,-73.519905,210.10469,198.13045,-0.3901,0.062,3
0.7407,-0.6062,0.2748,-0.0903,2.968867,-73.71412,209.92566,198.1509,-0.3818,0.0625,3
0.7402,-0.6076,0.2732,-0.0898,3.2055683,-73.908165,209.74814,198.16635,-0.3754,0.0615,3
0.7397,-0.609,0.2716,-0.0894,3.4447956,-74.10651,209.5578,198.16753,-0.373,0.0576,3
0.7392,-0.6104,0.27,-0.089,3.6652591,-74.30492,209.36723,198.16766,-0.3623,0.061,3
0.7387,-0.6116,0.2685,-0.0887,3.8574157,-74.48664,209.18143,198.1532,-0.3593,0.0664,3
0.7384,-0.6127,0.2672,-0.0884,4.0525947,-74.639885,209.02127,198.14032,-0.3745,0.0766,3
0.7381,-0.6137,0.2658,-0.0881,4.2723365,-74.78944,208.84833,198.11234,-0.3627,0.0556,3
0.7377,-0.6149,0.2643,-0.0877,4.9156756,-74.961464,208.67245,198.10281,-0.3486,0.0292,3
0.7367,-0.6181,0.2597,-0.0868,5.2813554,-75.45016,208.09299,197.9878,-0.2519,0.0585,3
0.7363,-0.6198,0.257,-0.0868,5.586235,-75.73266,207.68217,197.82542,-0.206,0.1103,3
0.736,-0.6209,0.2546,-0.088,5.7915797,-75.99403,207.16508,197.49284,-0.1591,0.1689,3
0.7354,-0.6218,0.2534,-0.0903,6.0646224,-76.2463,206.68527,197.13632,-0.1289,0.1855,3
0.7335,-0.6233,0.2532,-0.0961,6.14402,-76.7173,205.89635,196.50468,-0.1113,0.1972,3
0.7326,-0.6235,0.2538,-0.0994,6.198761,-76.89006,205.5556,196.17612,-0.1113,0.2055,3
0.7318,-0.6235,0.2549,-0.1029,6.2610393,-77.02701,205.26103,195.85634,-0.1411,0.2109,3
0.7308,-0.6235,0.2563,-0.1063,6.3835497,-77.1596,205.02417,195.59294,-0.1679,0.1811,3
0.7299,-0.6237,0.2572,-0.1094,6.595964,-77.312225,204.7463,195.32283,-0.1679,0.1333,3
0.729,-0.6241,0.2573,-0.1125,6.864309,-77.51477,204.34415,194.97871,-0.1542,0.1098,3
0.7282,-0.6246,0.257,-0.1158,7.2180176,-77.74331,203.8497,194.56326,-0.1157,0.1259,3
0.7271,-0.6253,0.2565,-0.1197,7.5821114,-78.03671,203.23854,194.06917,-0.083,0.1538,3
0.7256,-0.626,0.2569,-0.1242,7.96334,-78.33989,202.67542,193.60942,-0.0522,0.2133,3
0.7237,-0.6264,0.2586,-0.1297,8.351409,-78.62859,202.16943,193.15913,-0.0644,0.2636,3
0.7218,-0.6261,0.2615,-0.136,9.2926855,-78.843475,201.74089,192.69458,-0.0878,0.2744,3
0.7179,-0.6235,0.2701,-0.1505,9.895838,-79.08407,201.07205,191.71616,-0.1577,0.269,3
0.7162,-0.6214,0.2752,-0.1585,10.59837,-79.125496,200.7697,191.1559,-0.2041,0.2685,3
0.7145,-0.6186,0.2807,-0.1669,11.399048,-79.114044,200.49245,190.5466,-0.2416,0.2539,3
0.7129,-0.6153,0.2865,-0.1756,16.367504,-79.060326,200.23659,189.89459,-0.2773,0.2294,3
0.7066,-0.5987,0.305,-0.2213,16.796978,-79.20657,197.22136,185.07187,-0.312,0.1904,3
0.7071,-0.5973,0.3036,-0.2255,17.230757,-79.26861,196.5237,184.23393,-0.2812,0.2143,3
0.7076,-0.596,0.3019,-0.2297,17.682486,-79.343575,195.78462,183.36736,-0.2441,0.2456,3
0.7081,-0.5945,0.3003,-0.234,18.170527,-79.39726,195.06265,182.48538,-0.2294,0.2675,3
0.7084,-0.5928,0.2993,-0.2385,18.692745,-79.431335,194.412,181.64134,-0.2304,0.2783,3
0.7085,-0.591,0.299,-0.2432,19.260813,-79.452644,193.84175,180.85292,-0.2451,0.2641,3
0.7083,-0.5892,0.2989,-0.2482,19.834663,-79.49573,193.25948,180.06046,-0.2451,0.2397,3
0.708,-0.5874,0.299,-0.2532,20.451227,-79.53735,192.709,179.2952,-0.2324,0.2373,3
0.7075,-0.5855,0.2995,-0.2585,21.11508,-79.58153,192.18187,178.53792,-0.2299,0.2412,3
0.7067,-0.5834,0.3005,-0.2641,21.813301,-79.62519,191.69421,177.79913,-0.2353,0.2294,3
0.7057,-0.5811,0.3021,-0.2699,22.50199,-79.656746,191.27553,177.09962,-0.2729,0.2241,3
0.7048,-0.5787,0.3037,-0.2756,23.193047,-79.66984,190.8837,176.40343,-0.3222,0.2182,3
0.7039,-0.5763,0.3051,-0.2813,23.882328,-79.68762,190.46991,175.68405,-0.3378,0.2304,3
0.7031,-0.5739,0.3062,-0.287,24.583342,-79.70498,190.02437,174.9253,-0.3315,0.2558,3
0.7023,-0.5715,0.307,-0.2928,25.287249,-79.73133,189.53209,174.11775,-0.3056,0.2792,3
0.7014,-0.5692,0.3078,-0.2986,25.99409,-79.77149,189.03769,173.32034,-0.291,0.288,3
0.7005,-0.5668,0.3085,-0.3044,26.664103,-79.80409,188.54282,172.505,-0.2944,0.2783,3
0.6995,-0.5648,0.3091,-0.3099,27.758444,-79.86804,188.0493,171.74673,-0.2866,0.249,3
0.6978,-0.562,0.3085,-0.319,28.168575,-80.0454,186.99762,170.33331,-0.2626,0.2456,3
0.6971,-0.5614,0.3076,-0.3225,28.505241,-80.165955,186.47606,169.73853,-0.2387,0.2568,3
0.6964,-0.5612,0.3065,-0.3254,28.767923,-80.303635,185.97418,169.2241,-0.2314,0.2626,3
0.6958,-0.5613,0.3053,-0.3277,28.955599,-80.441635,185.51483,168.79224,-0.2216,0.248,3
0.6952,-0.5619,0.3038,-0.3294,29.06714,-80.60753,185.05276,168.43417,-0.2236,0.2314,3
0.6948,-0.5628,0.3018,-0.3305,29.128792,-80.77323,184.58241,168.10541,-0.2158,0.2172,3
0.6945,-0.564,0.2994,-0.3312,29.138857,-80.94996,184.08942,167.7939,-0.1997,0.2177,3
0.6944,-0.5655,0.2966,-0.3315,29.144386,-81.13007,183.57849,167.49538,-0.1748,0.2202,3
0.6942,-0.5671,0.2937,-0.3317,29.14299,-81.32304,183.05397,167.20438,-0.1518,0.2216,3
0.6939,-0.5689,0.2909,-0.3318,29.137197,-81.534676,182.536,166.95169,-0.1323,0.2431,3
0.6935,-0.5707,0.2884,-0.3318,29.15596,-81.746254,182.06407,166.75131,-0.1093,0.2753,3
0.6927,-0.5724,0.2867,-0.3319,29.22979,-81.97171,181.67363,166.64491,-0.0971,0.312,3
0.6915,-0.5741,0.2856,-0.3324,29.34761,-82.23,181.2967,166.57227,-0.083,0.3305,3
0.6899,-0.5757,0.2853,-0.3332,29.496666,-82.508156,180.9771,166.56898,-0.0844,0.3168,3
0.688,-0.5774,0.2852,-0.3342,29.640398,-82.820045,180.63667,166.58067,-0.0981,0.2773,3
0.6859,-0.5793,0.2853,-0.3351,29.74167,-83.15889,180.30751,166.6527,-0.1083,0.2475,3
0.6838,-0.5814,0.2854,-0.3356,29.795326,-83.50423,180.00763,166.79462,-0.1103,0.207,3
0.6819,-0.5838,0.2851,-0.3357,29.791813,-83.853874,179.68817,166.95178,-0.124,0.1689,3
0.6802,-0.5864,0.2845,-0.3353,29.72014,-84.19581,179.38171,167.14497,-0.1079,0.1401,3
0.6788,-0.589,0.2835,-0.3343,29.59909,-84.50489,179.10675,167.35841,-0.0927,0.1264,3
0.6777,-0.5917,0.2823,-0.3329,29.442123,-84.79166,178.86191,167.59612,-0.0625,0.1132,3
0.6769,-0.5942,0.2809,-0.3312,29.01524,-85.03426,178.6566,167.82547,-0.0454,0.1132,3
0.676,-0.5987,0.2785,-0.3269,28.79874,-85.396736,178.48619,168.4106,0.0004,0.1059,3
0.6759,-0.6003,0.2775,-0.3248,28.433477,-85.496574,178.48903,168.6714,0.0322,0.1123,3
0.6764,-0.6016,0.2774,-0.3216,28.293482,-85.484344,178.80678,169.17358,0.0556,0.1025,3
0.6767,-0.6013,0.2785,-0.3205,28.173227,-85.391655,179.13017,169.45415,0.0532,0.0849,3
0.6772,-0.6004,0.2803,-0.3197,28.049627,-85.230644,179.56503,169.74333,0.0146,0.062,3
0.6778,-0.599,0.2825,-0.3189,27.874907,-85.01382,180.09341,170.05118,-0.0297,0.0219,3
0.6786,-0.5975,0.2852,-0.3177,27.643042,-84.75275,180.75742,170.46619,-0.0883,-0.0107,3
0.6796,-0.5959,0.288,-0.316,27.347069,-84.45074,181.51369,170.94614,-0.124,-0.0268,3
0.681,-0.5942,0.2908,-0.3138,26.973778,-84.09394,182.3588,171.4674,-0.1591,-0.0253,3
0.6826,-0.5925,0.2935,-0.3109,26.517422,-83.70129,183.28548,172.05865,-0.1679,-0.0361,3
0.6845,-0.591,0.296,-0.3073,25.465786,-83.28295,184.27203,172.71371,-0.1669,-0.0273,3
0.6889,-0.5881,0.3,-0.2989,24.893288,-82.38662,186.27007,174.02153,-0.1523,0.0009,3
0.6913,-0.5868,0.3016,-0.2943,24.332035,-81.92886,187.25761,174.67155,-0.1367,0.0141,3
0.6938,-0.5854,0.303,-0.2898,22.788828,-81.461655,188.20972,175.26701,-0.1127,0.0346,3
0.7031,-0.5775,0.3082,-0.2774,22.659147,-79.63583,191.29544,176.68483,-0.0375,0.1401,3
0.7049,-0.5747,0.3104,-0.2762,22.610638,-79.18725,191.96562,176.85095,-0.039,0.1499,3
0.7065,-0.5715,0.3131,-0.2755,22.618994,-78.72322,192.65347,176.98724,-0.0737,0.1464,3
0.7093,-0.5652,0.3191,-0.2746,22.565542,-77.83033,194.01978,177.26924,-0.1791,0.0947,3
0.7108,-0.5624,0.3217,-0.2736,22.402845,-77.39627,194.69328,177.44951,-0.2294,0.0571,3
0.7124,-0.5601,0.3238,-0.2717,22.181067,-76.97729,195.37994,177.71754,-0.2509,0.0234,3
0.7142,-0.5581,0.3252,-0.2694,21.86791,-76.57354,196.00356,177.96988,-0.2558,0.0063,3
0.7163,-0.5565,0.3257,-0.2665,21.501799,-76.185425,196.55765,178.21568,-0.2568,-0.018,3
0.7188,-0.555,0.3254,-0.2633,21.122662,-75.7904,197.03589,178.40553,-0.2348,-0.0058,3
0.7214,-0.5536,0.3243,-0.2601,20.787306,-75.41917,197.39453,178.5157,-0.2001,0.0117,3
0.724,-0.5523,0.3231,-0.2573,20.526604,-75.07372,197.68,178.57133,-0.1606,0.0488,3
0.7263,-0.5509,0.3223,-0.255,20.361916,-74.74688,197.9544,178.6114,-0.1376,0.083,3
0.7281,-0.5493,0.3222,-0.2533,20.269596,-74.43862,198.25003,178.65462,-0.1323,0.0834,3
0.7294,-0.5478,0.3227,-0.2521,20.248892,-74.17297,198.55263,178.71992,-0.1416,0.0581,3
0.7304,-0.5462,0.3236,-0.2514,20.2873,-73.92559,198.84897,178.7661,-0.1523,0.0522,3
0.7312,-0.5447,0.3247,-0.2512,20.404127,-73.71223,199.1048,178.78029,-0.1645,0.0541,3
0.7318,-0.543,0.3259,-0.2516,20.586666,-73.51404,199.30968,178.72205,-0.1772,0.0595,3
0.7322,-0.5412,0.3273,-0.2525,20.818863,-73.33323,199.48497,178.6202,-0.1933,0.0659,3
0.7325,-0.5393,0.3287,-0.2538,21.055656,-73.16518,199.61716,178.46404,-0.1997,0.0678,3
0.7325,-0.5376,0.3304,-0.2551,21.294415,-73.02524,199.77681,178.36075,-0.2167,0.062,3
0.7325,-0.5359,0.3321,-0.2564,21.500221,-72.8855,199.93674,178.25684,-0.2368,0.0463,3
0.7326,-0.5344,0.3336,-0.2575,21.713943,-72.75435,200.08487,178.16655,-0.2568,0.0371,3
0.7334,-0.5313,0.3365,-0.2578,21.610847,-72.37785,200.59879,178.1895,-0.2915,0.0205,3
0.7348,-0.5297,0.337,-0.2562,21.534718,-72.081955,200.94196,178.29102,-0.2685,0.0317,3
0.7355,-0.5293,0.3369,-0.2554,21.485601,-71.977036,201.04681,178.33226,-0.2353,0.0541,3
0.736,-0.529,0.3367,-0.2549,21.51616,-71.90696,201.09666,178.33965,-0.2138,0.0776,3
0.7364,-0.5285,0.3364,-0.2551,21.617802,-71.85509,201.06145,178.23991,-0.2065,0.0795,3
0.7365,-0.5281,0.3361,-0.256,21.737553,-71.85648,200.93872,178.06824,-0.1972,0.1,3
0.7362,-0.5281,0.3358,-0.2572,21.918625,-71.92778,200.75873,177.89749,-0.1547,0.1342,3
0.7355,-0.5282,0.3359,-0.2589,22.173288,-72.04085,200.56589,177.722,-0.1054,0.1674,3
0.7343,-0.5284,0.3364,-0.2612,22.569422,-72.20589,200.34663,177.53322,-0.0659,0.185,3
0.7326,-0.5284,0.3374,-0.2646,23.066479,-72.4139,200.07036,177.25899,-0.0629,0.1958,3
0.7303,-0.5285,0.3389,-0.2688,23.65284,-72.68587,199.7532,176.9607,-0.0444,0.2114,3
0.7275,-0.5287,0.3408,-0.2737,24.319014,-73.0148,199.3916,176.6389,-0.0366,0.225,3
0.7243,-0.5288,0.3432,-0.2791,25.09552,-73.368065,199.0308,176.3145,-0.0551,0.249,3
0.7207,-0.5284,0.3462,-0.2851,26.790432,-73.71392,198.69151,175.96133,-0.0927,0.2368,3
0.7136,-0.5269,0.3525,-0.298,28.920881,-74.37344,197.96436,175.13322,-0.2055,0.2006,3
0.7035,-0.5269,0.3578,-0.315,29.527107,-75.54309,196.42311,173.92091,-0.1557,0.2944,3
0.7002,-0.5278,0.3584,-0.3202,30.136627,-76.016685,195.74142,173.51727,-0.103,0.3251,3
0.6967,-0.529,0.3587,-0.3255,30.731136,-76.54006,194.97432,173.09924,-0.0541,0.3447,3
0.693,-0.5304,0.359,-0.3306,31.288782,-77.08643,194.20096,172.73087,-0.0346,0.3432,3
0.6895,-0.5319,0.3592,-0.3354,32.131966,-77.61941,193.43967,172.38994,-0.0395,0.3393,3
0.6834,-0.5356,0.3582,-0.343,32.374424,-78.64207,191.92831,171.82306,-0.0883,0.2998,3
0.6812,-0.5378,0.3566,-0.3456,32.53979,-79.10569,191.1693,171.55595,-0.0913,0.2714,3
0.6794,-0.5401,0.3543,-0.3477,32.64495,-79.54755,190.38222,171.25935,-0.0864,0.2397,3
0.6782,-0.5423,0.3517,-0.3494,32.763397,-79.930885,189.63292,170.94106,-0.0712,0.2177,3
0.677,-0.5443,0.3492,-0.3511,33.330757,-80.29434,188.9083,170.61603,-0.0463,0.2026,3
0.6733,-0.549,0.3423,-0.3575,33.643433,-81.309006,186.73654,169.42825,0.0014,0.1728,3
0.6718,-0.55,0.3408,-0.3604,33.996178,-81.62622,186.05305,168.99269,-0.0004,0.1845,3
0.6701,-0.5508,0.3396,-0.3635,34.3743,-81.94108,185.3888,168.56003,-0.017,0.1879,3
0.6682,-0.5515,0.3386,-0.3667,34.72678,-82.26089,184.73463,168.13884,-0.0449,0.1835,3
0.6664,-0.5523,0.3376,-0.3697,35.067005,-82.5742,184.1006,167.7448,-0.0717,0.1831,3
0.6646,-0.5532,0.3365,-0.3726,35.423714,-82.89357,183.4564,167.35638,-0.0961,0.1879,3
0.6628,-0.554,0.3356,-0.3756,35.817772,-83.20353,182.83336,166.97116,-0.1074,0.2021,3
0.6608,-0.5546,0.3349,-0.3788,36.230938,-83.5144,182.2158,166.57846,-0.1201,0.1899,3
0.6587,-0.5551,0.3343,-0.3821,36.6293,-83.825676,181.60048,166.1815,-0.1186,0.1787,3
0.6566,-0.5558,0.3336,-0.3853,36.989483,-84.15133,180.9672,165.7975,-0.145,0.1689,3
0.6545,-0.5568,0.3327,-0.3882,37.281082,-84.49505,180.3171,165.44719,-0.1665,0.1621,3
0.6526,-0.5581,0.3314,-0.3906,37.518936,-84.83877,179.65883,165.12128,-0.1728,0.1645,3
0.6508,-0.5598,0.3299,-0.3926,37.7452,-85.197655,178.9926,164.84396,-0.1762,0.1826,3
0.649,-0.5616,0.3281,-0.3945,37.941845,-85.56576,178.28883,164.54338,-0.1723,0.1826,3
0.6472,-0.5635,0.3263,-0.3961,38.21974,-85.932495,177.60786,164.28796,-0.1689,0.186,3
0.6443,-0.5673,0.3228,-0.3984,38.334843,-86.582016,176.4003,163.8748,-0.1689,0.1875,3
0.6429,-0.5692,0.321,-0.3993,38.403652,-86.89582,175.81828,163.68959,-0.1611,0.1835,3
0.6416,-0.5713,0.3193,-0.3998,38.4521,-87.204765,175.282,163.58159,-0.1455,0.1875,3
0.6404,-0.5733,0.3177,-0.4001,38.470802,-87.49066,174.79398,163.50252,-0.164,0.1889,3
0.6394,-0.5754,0.3159,-0.4002,38.461994,-87.76564,174.30753,163.41795,-0.1562,0.1948,3
0.6384,-0.5775,0.3143,-0.4,38.44569,-88.02971,173.87787,163.40335,-0.1557,0.2094,3
0.6374,-0.5796,0.3128,-0.3997,38.399902,-88.289665,173.47066,163.41638,-0.1562,0.2089,3
0.6364,-0.5818,0.3114,-0.3991,38.309494,-88.548325,173.09949,163.49289,-0.1489,0.1943,3
0.6355,-0.5841,0.3102,-0.3981,38.16948,-88.793625,172.79625,163.65805,-0.1367,0.186,3
0.6348,-0.5865,0.309,-0.3967,37.972202,-89.0202,172.54385,163.87743,-0.1293,0.1801,3
0.6343,-0.5888,0.308,-0.3948,37.739395,-89.20687,172.39632,164.18214,-0.1074,0.1787,3
0.6339,-0.5913,0.3069,-0.3926,37.455143,-89.39465,172.26183,164.52399,-0.0864,0.1655,3
0.6338,-0.5936,0.306,-0.39,37.10664,-89.52885,172.2398,164.92545,-0.062,0.1621,3
0.634,-0.5959,0.3052,-0.3869,36.71665,-89.6238,172.31386,165.3996,-0.0224,0.1713,3
0.6343,-0.5979,0.3048,-0.3834,36.334843,-89.66974,172.52179,165.96742,0.0258,0.1762,3
0.6347,-0.5996,0.3051,-0.38,35.964985,-89.67378,172.84769,166.60236,0.0703,0.2006,3
0.6352,-0.6005,0.3061,-0.3767,35.655746,-89.59596,173.3315,167.2684,0.0781,0.2192,3
0.6356,-0.6009,0.3082,-0.3739,35.404015,-89.47733,173.93993,167.99792,0.0825,0.2319,3
0.6358,-0.6008,0.3109,-0.3715,35.18982,-89.330925,174.6095,168.73265,0.081,0.2163,3
0.6358,-0.6004,0.3142,-0.3693,34.99664,-89.16493,175.348,169.51369,0.0683,0.1938,3
0.6359,-0.5998,0.3175,-0.3673,34.760773,-88.97588,176.08992,170.24036,0.0395,0.1557,3
0.6363,-0.5992,0.3206,-0.365,34.02449,-88.75386,176.86816,170.95691,0.0048,0.1044,3
0.6385,-0.5981,0.3254,-0.3585,33.48888,-88.17173,178.5787,172.36237,-0.0498,0.0346,3
0.6407,-0.5976,0.3269,-0.3542,32.846058,-87.785866,179.52425,173.01381,-0.0253,0.0073,3
0.6433,-0.5972,0.3277,-0.3491,32.121964,-87.36837,180.49773,173.65857,0.0161,0.0039,3
0.6464,-0.5969,0.328,-0.3435,31.38706,-86.91741,181.49352,174.2786,0.0595,0.0009,3
0.6497,-0.5965,0.3281,-0.3379,28.0051,-86.44945,182.48022,174.85057,0.0878,0.0063,3
0.6683,-0.5901,0.3268,-0.3134,27.368113,-83.80016,187.02911,176.56374,0.0415,0.0419,3
0.6726,-0.5875,0.3268,-0.3089,26.708557,-83.13495,188.00423,176.76897,0.0102,0.0351,3
0.6771,-0.5849,0.3268,-0.3042,26.020039,-82.44909,188.99687,176.99461,-0.0292,0.0292,3
0.6817,-0.5822,0.3266,-0.2992,25.274193,-81.74417,189.99171,177.2293,-0.0581,0.0341,3
0.6865,-0.5796,0.3261,-0.2937,24.512966,-81.02479,190.99062,177.49728,-0.062,0.0239,3
0.6912,-0.5773,0.3254,-0.288,23.7251,-80.33558,191.9438,177.79889,-0.0708,0.0463,3
0.6957,-0.5754,0.3244,-0.282,22.920647,-79.69076,192.84279,178.14726,-0.0541,0.0415,3
0.7001,-0.5737,0.3232,-0.2758,20.64046,-79.06837,193.70572,178.52235,-0.0317,0.0483,3
0.7203,-0.5545,0.3296,-0.2547,20.98671,-75.216,198.71364,179.87267,0.0288,0.1215,3
0.7214,-0.5497,0.3345,-0.2558,21.4086,-74.64913,199.50519,179.8805,-0.0463,0.0893,3
0.7223,-0.5446,0.3396,-0.2572,21.875511,-74.07581,200.29568,179.85081,-0.1147,0.0517,3
0.7232,-0.5395,0.3447,-0.2588,22.310795,-73.51054,201.05917,179.78603,-0.1796,0.0224,3
0.7242,-0.5345,0.3492,-0.2601,22.706758,-72.953545,201.77075,179.69562,-0.228,-0.0004,3
0.7254,-0.5298,0.353,-0.2612,23.03909,-72.42214,202.39665,179.56772,-0.2597,-0.0097,3
0.7269,-0.5255,0.356,-0.262,23.302774,-71.91746,202.93156,179.41057,-0.2739,-0.0087,3
0.7284,-0.5216,0.3583,-0.2624,23.501348,-71.450584,203.39705,179.26216,-0.2749,0.0019,3
0.7299,-0.5181,0.3601,-0.2624,23.64405,-71.0154,203.81985,179.14235,-0.288,0.0024,3
0.7315,-0.515,0.3615,-0.2621,23.729418,-70.60695,204.20265,179.04414,-0.3032,-0.0053,3
0.7333,-0.5122,0.3624,-0.2615,23.756752,-70.21364,204.53754,178.94899,-0.3125,-0.0087,3
0.735,-0.5099,0.3627,-0.2607,23.737955,-69.87702,204.78821,178.86162,-0.3012,-0.0087,3
0.737,-0.5079,0.3621,-0.2599,23.666834,-69.57267,204.9055,178.70241,-0.2998,0.0004,3
0.7387,-0.5066,0.3611,-0.259,23.579472,-69.351944,204.9447,178.57799,-0.267,0.0063,3
0.7402,-0.5058,0.3597,-0.2583,23.518503,-69.204094,204.88356,178.4338,-0.2412,0.0346,3
0.7414,-0.5052,0.3584,-0.2579,23.507872,-69.10006,204.791,178.28607,-0.2109,0.0625,3
0.7422,-0.5046,0.3576,-0.2578,23.558348,-69.01825,204.72878,178.16089,-0.2099,0.0825,3
0.7426,-0.5039,0.3575,-0.258,23.63912,-68.94518,204.72801,178.06914,-0.2216,0.0644,3
0.7428,-0.5031,0.3581,-0.2582,23.710825,-68.8572,204.82262,178.04016,-0.267,0.0366,3
0.743,-0.5023,0.3587,-0.2583,23.778677,-68.76524,204.92804,178.02357,-0.2866,0.0317,3
0.7431,-0.5017,0.3592,-0.2585,24.097776,-68.70296,204.99976,178.0017,-0.2739,0.0488,3
0.7431,-0.4998,0.3608,-0.2602,24.109919,-68.56706,205.11162,177.81267,-0.2563,0.0937,3
0.7427,-0.5002,0.3606,-0.2606,24.190662,-68.64629,205.02155,177.78531,-0.1992,0.1406,3
0.7419,-0.5008,0.3607,-0.2617,24.424688,-68.78682,204.88289,177.72424,-0.1362,0.1738,3
0.7404,-0.5014,0.3609,-0.2643,24.791117,-69.0267,204.58838,177.51202,-0.0834,0.2119,3
0.7384,-0.502,0.3617,-0.268,25.300507,-69.32539,204.24568,177.2347,-0.0615,0.2158,3
0.7358,-0.5023,0.3628,-0.2728,25.90511,-69.67144,203.82616,176.85233,-0.0698,0.2241,3
0.7329,-0.5025,0.3643,-0.2783,26.555294,-70.045845,203.3774,176.42491,-0.1196,0.229,3
0.7298,-0.5025,0.366,-0.284,27.172634,-70.41961,202.93303,175.98776,-0.1733,0.2084,3
0.7267,-0.5027,0.3677,-0.2894,27.710001,-70.79967,202.50407,175.60295,-0.208,0.1997,3
0.7237,-0.5031,0.3695,-0.294,28.181303,-71.15721,202.16087,175.33882,-0.2114,0.2119,3
0.7208,-0.5036,0.3714,-0.2979,28.641281,-71.48737,201.89864,175.17699,-0.2153,0.2373,3
0.7179,-0.5039,0.3737,-0.3014,30.395891,-71.77519,201.7387,175.09283,-0.2329,0.2348,3
0.7072,-0.5052,0.3811,-0.315,30.747427,-72.91424,200.86903,174.63518,-0.2421,0.2651,3
0.7042,-0.507,0.3812,-0.3186,31.15022,-73.39704,200.29239,174.44827,-0.1811,0.3247,3
0.7007,-0.5093,0.3811,-0.3228,33.137463,-73.98298,199.56807,174.22473,-0.1152,0.3793,3
0.6836,-0.5204,0.3802,-0.3423,33.45734,-76.81006,195.9286,173.23938,-0.1044,0.3227,3
0.6798,-0.5239,0.379,-0.3458,33.65554,-77.51628,194.97997,173.10059,-0.125,0.3012,3
0.6766,-0.5277,0.377,-0.3485,33.827232,-78.19636,194.01033,172.9696,-0.1245,0.2734,3
0.6717,-0.5357,0.3706,-0.3526,33.860764,-79.499535,191.91252,172.55098,-0.1005,0.2187,3
0.6697,-0.5398,0.3667,-0.3543,33.878235,-80.13181,190.81313,172.28075,-0.0795,0.1821,3
0.6678,-0.5439,0.3625,-0.3558,33.91125,-80.755844,189.69528,171.98691,-0.0502,0.1611,3
0.666,-0.5479,0.3584,-0.3573,33.96806,-81.36041,188.5959,171.68192,-0.0249,0.1406,3
0.6642,-0.5516,0.3544,-0.3588,34.068092,-81.93668,187.52507,171.3572,0.0043,0.1298,3
0.6624,-0.5551,0.3507,-0.3605,34.22642,-82.49475,186.47891,171.01828,0.02,0.1264,3
0.6606,-0.5581,0.3473,-0.3625,34.440144,-83.01439,185.46814,170.6317,0.0336,0.142,3
0.6588,-0.5606,0.3442,-0.3648,34.70086,-83.495514,184.49411,170.19865,0.0166,0.1655,3
0.6571,-0.5626,0.3413,-0.3674,36.304913,-83.93294,183.55107,169.7022,-0.0063,0.2026,3
0.6474,-0.5714,0.3296,-0.3815,36.44775,-86.056564,179.06528,167.31761,-0.1987,0.1245,3
0.6462,-0.5732,0.3274,-0.3828,36.539913,-86.372856,178.40443,167.01935,-0.2124,0.1176,3
0.6452,-0.5751,0.3249,-0.3837,36.582645,-86.67407,177.75517,166.72765,-0.2187,0.1079,3
0.6444,-0.5771,0.3222,-0.3842,36.51472,-86.95826,177.1308,166.45612,-0.2119,0.1157,3
0.6436,-0.5808,0.3175,-0.3839,36.47333,-87.38726,176.20082,166.1235,-0.1699,0.1528,3
0.6432,-0.5825,0.3156,-0.3836,36.442905,-87.57699,175.82295,166.02902,-0.1494,0.1567,3
0.6427,-0.584,0.3142,-0.3833,36.33363,-87.75009,175.51857,165.99673,-0.1577,0.1708,3
0.6415,-0.5872,0.3122,-0.3821,36.245167,-88.097565,175.05112,166.15593,-0.1337,0.1704,3
0.6412,-0.5881,0.3122,-0.3812,36.106277,-88.167114,175.06044,166.36157,-0.1367,0.1582,3
0.6411,-0.589,0.3123,-0.3799,35.891285,-88.20769,175.14433,166.62903,-0.1406,0.1518,3
0.6413,-0.5899,0.3124,-0.378,35.64496,-88.2074,175.3209,166.96678,-0.1162,0.1557,3
0.6417,-0.5909,0.3125,-0.3759,35.360634,-88.19297,175.52948,167.32964,-0.0878,0.1704,3
0.6421,-0.5917,0.3128,-0.3734,35.05691,-88.14726,175.82877,167.76479,-0.0415,0.1933,3
0.6427,-0.5925,0.3134,-0.3708,34.743233,-88.07609,176.1973,168.24707,-0.0122,0.2128,3
0.6434,-0.5929,0.3143,-0.3681,34.443527,-87.9558,176.6587,168.75314,0.0053,0.2202,3
0.6441,-0.5931,0.3156,-0.3655,34.170704,-87.81294,177.17992,169.2873,0.0136,0.2353,3
0.6448,-0.5929,0.3173,-0.3631,33.94192,-87.63437,177.76395,169.82022,0.0302,0.2509,3
0.6454,-0.5923,0.3196,-0.361,33.766434,-87.425804,178.41794,170.37036,0.0434,0.2446,3
0.6457,-0.5915,0.3224,-0.3592,33.63455,-87.21928,179.09892,170.94699,0.0234,0.2241,3
0.6459,-0.5905,0.3255,-0.3577,33.525146,-87.00356,179.7937,171.50983,0.0131,0.1762,3
0.646,-0.5894,0.3288,-0.3563,33.42054,-86.78213,180.50563,172.07948,-0.0244,0.1269,3
0.6464,-0.5879,0.3321,-0.355,33.287323,-86.507195,181.25676,172.5831,-0.0761,0.081,3
0.6471,-0.5862,0.3353,-0.3535,33.11429,-86.187515,182.0549,173.06242,-0.143,0.0249,3
0.6481,-0.5844,0.3384,-0.3517,31.814037,-85.8277,182.90428,173.53804,-0.1982,-0.0122,3
0.6551,-0.5801,0.3435,-0.341,31.113304,-84.463264,185.71242,174.95073,-0.1718,-0.0493,3
0.6583,-0.5796,0.3432,-0.3356,30.33657,-84.009155,186.58607,175.42688,-0.1196,-0.041,3
0.6618,-0.5797,0.3421,-0.3298,29.4943,-83.589905,187.3708,175.88351,-0.08,-0.0395,3
0.6655,-0.58,0.3402,-0.3236,28.628393,-83.18263,188.08801,176.30077,-0.0361,-0.0307,3
0.6695,-0.5804,0.3377,-0.3174,27.786247,-82.781815,188.72322,176.63861,0.0014,-0.0151,3
0.6735,-0.5805,0.335,-0.3114,26.982233,-82.372635,189.31512,176.9102,0.0498,0.0029,3
0.6776,-0.5802,0.3325,-0.3057,26.212431,-81.93164,189.91544,177.13914,0.0668,0.0166,3
0.6817,-0.5795,0.3303,-0.3002,25.502985,-81.458824,190.54453,177.35692,0.0737,0.0361,3
0.6858,-0.5783,0.3286,-0.2951,24.861534,-80.94738,191.20885,177.55315,0.0581,0.038,3
0.6897,-0.5767,0.3274,-0.2904,24.265583,-80.4186,191.8935,177.7439,0.0512,0.038,3
0.6935,-0.5747,0.3268,-0.2859,23.712408,-79.85522,192.64194,177.96089,0.0439,0.0278,3
0.6969,-0.5729,0.3265,-0.2816,23.179665,-79.333954,193.36812,178.22107,0.0302,0.0117,3
0.7001,-0.571,0.3266,-0.2773,22.69965,-78.80685,194.13757,178.53139,0.0356,0.0146,3
0.703,-0.5691,0.327,-0.2733,22.308199,-78.30211,194.89081,178.84978,0.0366,0.038,3
0.7056,-0.5671,0.3278,-0.2699,21.982542,-77.819496,195.61119,179.13942,0.0405,0.0512,3
0.7081,-0.5646,0.3293,-0.2668,23.453432,-77.293175,196.40605,179.43661,0.0507,0.0756,3
0.7218,-0.5292,0.3574,-0.2663,23.643126,-72.66964,202.3709,179.45609,-0.1933,0.0117,3
0.7232,-0.5262,0.359,-0.2667,23.772346,-72.30449,202.70549,179.30186,-0.2573,0.0019,3
0.7248,-0.5232,0.3599,-0.2667,23.826643,-71.931366,202.99374,179.1243,-0.3041,-0.0024,3
0.7269,-0.5204,0.3601,-0.2663,23.766085,-71.54818,203.22856,178.92432,-0.3505,-0.02,3
0.7291,-0.5182,0.3596,-0.2652,23.59795,-71.200195,203.41943,178.78415,-0.3554,-0.041,3
0.7317,-0.5166,0.3579,-0.2637,22.228567,-70.89529,203.46802,178.6083,-0.3481,-0.0419,3
0.741,-0.5173,0.343,-0.2558,22.008505,-70.4751,202.42879,177.9182,-0.1552,0.0693,3
0.7422,-0.518,0.3401,-0.2548,21.90073,-70.49682,202.13257,177.77547,-0.124,0.0825,3
0.7429,-0.5184,0.3384,-0.2544,21.85771,-70.515495,201.93869,177.6674,-0.1293,0.0737,3
0.7431,-0.5186,0.3375,-0.2543,21.902685,-70.53889,201.82268,177.60173,-0.1401,0.0561,3
0.7431,-0.5185,0.3375,-0.2547,22.12975,-70.54528,201.78307,177.54482,-0.1455,0.0561,3
0.7426,-0.5174,0.3395,-0.2559,22.34295,-70.47733,201.96225,177.52985,-0.1811,0.0346,3
0.7422,-0.5161,0.3413,-0.2569,22.590166,-70.38357,202.14703,177.50606,-0.2128,0.0244,3
0.7421,-0.5144,0.3433,-0.258,22.800186,-70.23606,202.3685,177.45203,-0.2299,0.0151,3
0.742,-0.5128,0.3455,-0.2587,23.18936,-70.07699,202.65585,177.47179,-0.2568,0.0214,3
0.7408,-0.5114,0.3484,-0.261,23.350605,-70.04599,202.84093,177.40532,-0.2016,0.0922,3
0.7399,-0.5112,0.3496,-0.2621,28.766336,-70.09598,202.87971,177.39738,-0.1791,0.1245,3
0.7099,-0.5122,0.3756,-0.304,30.047989,-73.020515,201.07397,175.83992,-0.3276,0.2124,3
0.6981,-0.5194,0.378,-0.316,31.06665,-74.7815,199.28232,175.58992,-0.1958,0.3271,3
0.6732,-0.5526,0.3611,-0.3328,31.278465,-80.23695,191.98256,175.19267,-0.0244,0.1616,3
0.6689,-0.5635,0.3467,-0.3385,33.051483,-82.01302,188.37799,173.73648,0.0839,0.121,3
0.6586,-0.5752,0.3296,-0.3556,38.20703,-84.69539,182.56331,170.59587,-0.0087,0.2211,3
0.6349,-0.5825,0.3165,-0.3965,39.386402,-88.579056,173.86728,164.74945,-0.1689,0.1611,3
0.6294,-0.5812,0.3191,-0.4051,39.484375,-89.11321,172.93149,164.10742,-0.186,0.1743,3
0.6287,-0.5812,0.3195,-0.4057,39.525185,-89.17986,172.86116,164.11908,-0.1723,0.1933,3
0.6283,-0.5813,0.32,-0.4059,39.47465,-89.217445,172.86284,164.19453,-0.1694,0.207,3
0.6283,-0.5814,0.3205,-0.4054,39.36706,-89.2034,172.97289,164.34853,-0.1611,0.2114,3
0.6284,-0.5816,0.321,-0.4044,39.188637,-89.175064,173.13742,164.5754,-0.1606,0.1997,3
0.6288,-0.5821,0.3214,-0.4029,38.980507,-89.13326,173.34389,164.86378,-0.1508,0.1777,3
0.6291,-0.5829,0.3217,-0.4011,38.733055,-89.11569,173.53879,165.20657,-0.1083,0.1586,3
0.6294,-0.5837,0.3222,-0.3989,38.47873,-89.0826,173.80553,165.63605,-0.0537,0.124,3
0.6299,-0.5843,0.3228,-0.3967,38.26235,-89.01519,174.1199,166.05467,0.0034,0.1152,3
0.6304,-0.5845,0.3238,-0.3948,38.11458,-88.916885,174.48727,166.46051,0.0527,0.1323,3
0.6308,-0.5841,0.3256,-0.3934,38.046997,-88.7778,174.94489,166.87456,0.0761,0.1264,3
0.6309,-0.5831,0.3281,-0.3925,38.0491,-88.61498,175.46336,167.29141,0.06,0.1289,3
0.631,-0.5814,0.3315,-0.3921,38.073315,-88.39205,176.10005,167.71397,0.0297,0.0981,3
0.6311,-0.5794,0.3352,-0.3918,38.126507,-88.13975,176.78938,168.13785,-0.0087,0.0937,3
0.6311,-0.5771,0.3392,-0.3916,38.16195,-87.86545,177.52357,168.5673,-0.0498,0.083,3
0.6313,-0.5746,0.3434,-0.3912,38.14678,-87.545845,178.33911,169.0182,-0.1093,0.0664,3
0.6318,-0.5722,0.3475,-0.3904,38.01672,-87.19659,179.203,169.49113,-0.1621,0.0498,3
0.6328,-0.5702,0.3509,-0.3888,37.722645,-86.82728,180.0739,169.96887,-0.1806,0.039,3
0.6343,-0.5688,0.3534,-0.386,37.248024,-86.44539,180.95706,170.49641,-0.1499,0.0224,3
0.6365,-0.5681,0.3549,-0.382,35.87466,-86.04715,181.84634,171.05856,-0.1137,0.0068,3
0.642,-0.5693,0.3546,-0.3713,35.044983,-85.35951,183.3891,172.23602,-0.039,-0.0322,3
0.6452,-0.5708,0.3527,-0.3652,34.230915,-85.074425,183.98157,172.73895,0.0654,0.0288,3
0.6484,-0.5723,0.3505,-0.3593,32.839035,-84.80659,184.5096,173.17844,0.1875,0.0839,3
0.6542,-0.5739,0.3473,-0.3491,32.262676,-84.23432,185.59233,173.93436,0.2548,0.1347,3
0.6569,-0.5738,0.3465,-0.3448,30.382782,-83.90056,186.19185,174.25479,0.246,0.1425,3
0.6682,-0.5689,0.3469,-0.3305,29.352211,-82.187035,189.00838,175.2542,0.0249,0.0449,3
0.6749,-0.5649,0.3484,-0.3222,29.06246,-81.05673,190.85172,175.90144,0,0.0649,3
0.6769,-0.5635,0.3489,-0.3198,28.806087,-80.70454,191.40428,176.07578,0.0112,0.0712,3
0.6788,-0.5621,0.3497,-0.3176,28.615551,-80.35789,191.96422,176.26312,0.0253,0.0742,3
0.6806,-0.5602,0.3508,-0.3158,28.488695,-79.98479,192.53836,176.4018,0.0278,0.0771,3
0.6824,-0.5578,0.3522,-0.3144,28.427574,-79.5784,193.13031,176.48602,0.0126,0.0942,3
0.6842,-0.555,0.354,-0.3134,28.422739,-79.14371,193.74695,176.5334,-0.0151,0.1044,3
0.6859,-0.552,0.3562,-0.3127,28.44181,-78.69951,194.38446,176.57509,-0.0366,0.1,3
0.6876,-0.5487,0.3587,-0.312,28.477015,-78.22245,195.07658,176.62634,-0.0649,0.0795,3
0.6891,-0.5455,0.3613,-0.3113,28.559328,-77.76343,195.76431,176.70213,-0.0927,0.059,3
0.692,-0.539,0.3668,-0.3096,28.588814,-76.82211,197.20654,176.91125,-0.1772,0.0063,3
0.6936,-0.5359,0.3692,-0.3087,28.580976,-76.36173,197.87502,176.98273,-0.2348,-0.0102,3
0.6953,-0.533,0.3711,-0.3076,28.524937,-75.91767,198.48686,177.03459,-0.2758,-0.0209,3
0.6972,-0.5301,0.3727,-0.3061,28.403328,-75.45326,199.10767,177.09554,-0.312,-0.0273,3
0.6996,-0.5276,0.3733,-0.3045,28.19986,-75.015045,199.59042,177.07109,-0.3227,-0.0209,3
0.7021,-0.5257,0.3726,-0.3027,27.924025,-74.64923,199.88539,176.98074,-0.2846,-0.0292,3
0.7046,-0.5246,0.3711,-0.3007,27.589514,-74.36331,200.04672,176.89389,-0.2246,-0.0224,3
0.7068,-0.5243,0.369,-0.2985,27.295118,-74.17049,200.0958,176.84401,-0.1518,0.0048,3
0.7086,-0.5244,0.367,-0.2967,27.11623,-74.04888,200.07687,176.80013,-0.0947,0.0522,3
0.7097,-0.5244,0.3657,-0.2956,27.077448,-73.97163,200.05753,176.76233,-0.0737,0.0878,3
0.7103,-0.524,0.3654,-0.2953,27.123041,-73.89715,200.08803,176.71748,-0.0688,0.0883,3
0.7103,-0.5235,0.3659,-0.2954,27.214916,-73.84606,200.17062,176.7208,-0.102,0.0776,3
0.7102,-0.5228,0.3669,-0.2957,27.337463,-73.77891,200.3052,176.73872,-0.1308,0.0673,3
0.71,-0.5219,0.3682,-0.2961,27.473558,-73.69718,200.47694,176.76424,-0.163,0.0478,3
0.7099,-0.5207,0.3699,-0.2964,27.61203,-73.56911,200.73235,176.8163,-0.185,0.0415,3
0.7098,-0.5194,0.3718,-0.2966,27.927536,-73.4229,201.0315,176.8928,-0.2055,0.0341,3
0.7092,-0.5169,0.3761,-0.2971,28.749676,-73.15259,201.6702,177.1026,-0.187,0.0278,3
0.7061,-0.5138,0.3831,-0.3008,29.140368,-73.041664,202.27254,177.23793,-0.2065,0.0776,3
0.7046,-0.5129,0.3853,-0.3032,29.855497,-73.09768,202.29999,177.15509,-0.2192,0.0698,3
0.7013,-0.512,0.3884,-0.3081,30.202782,-73.34541,202.11017,176.93217,-0.2333,0.1083,3
0.6995,-0.5119,0.3898,-0.3106,31.460615,-73.51412,201.96347,176.83313,-0.1899,0.1694,3
0.6922,-0.5128,0.394,-0.3202,31.966564,-74.3279,201.13754,176.46078,-0.1474,0.1816,3
0.6894,-0.513,0.3954,-0.3241,33.06773,-74.64531,200.76523,176.26495,-0.1782,0.1811,3
0.6836,-0.5128,0.3991,-0.3321,33.57244,-75.22808,200.13034,175.91158,-0.2568,0.1718,3
0.6809,-0.5126,0.401,-0.3356,33.98245,-75.47662,199.88495,175.78886,-0.2924,0.1376,3
0.6784,-0.5129,0.4023,-0.3386,34.26054,-75.74941,199.59108,175.69768,-0.3095,0.1279,3
0.6763,-0.5138,0.4028,-0.3409,34.42644,-76.038895,199.24718,175.6391,-0.2866,0.1572,3
0.6744,-0.5154,0.4024,-0.3427,34.567783,-76.3773,198.80276,175.59497,-0.246,0.2319,3
0.6722,-0.5176,0.4018,-0.3444,34.697956,-76.78399,198.2891,175.60493,-0.1967,0.3149,3
0.6696,-0.5204,0.4012,-0.346,34.797447,-77.25892,197.72638,175.69592,-0.1489,0.3588,3
0.6669,-0.5236,0.4001,-0.3475,34.80492,-77.78308,197.07123,175.78542,-0.1215,0.3491,3
0.6644,-0.5273,0.3985,-0.3484,34.70617,-78.32326,196.39,175.92613,-0.082,0.3095,3
0.6624,-0.5313,0.3964,-0.3486,34.529613,-78.84023,195.72308,176.09685,-0.0234,0.2553,3
0.6612,-0.535,0.3939,-0.3483,34.2244,-79.273636,195.11664,176.2175,0.0312,0.2275,3
0.6593,-0.5414,0.3886,-0.348,34.276134,-80.053764,193.9097,176.27443,0.0961,0.2275,3
0.6579,-0.5436,0.3868,-0.3491,34.484352,-80.42152,193.30672,176.18297,0.0922,0.2055,3
0.6561,-0.5452,0.3857,-0.3512,35.16783,-80.78863,192.69043,176.01749,0.0703,0.1606,3
0.652,-0.5471,0.3844,-0.3572,35.51947,-81.50219,191.40785,175.4838,-0.0034,0.1069,3
0.6501,-0.548,0.3835,-0.3604,35.842915,-81.86126,190.71484,175.1477,-0.0288,0.1103,3
0.6483,-0.549,0.3821,-0.3635,36.13417,-82.23273,189.96355,174.76588,-0.04,0.1088,3
0.6466,-0.5503,0.3802,-0.3665,36.37296,-82.631195,189.13943,174.35185,-0.0419,0.1166,3
0.6452,-0.5519,0.3777,-0.3693,36.5856,-83.04117,188.25359,173.89227,-0.0429,0.125,3
0.6439,-0.5537,0.3747,-0.372,36.782894,-83.46868,187.30354,173.38809,-0.0385,0.1328,3
0.6425,-0.5556,0.3715,-0.3745,37.485012,-83.906456,186.33717,172.89195,-0.0405,0.1425,3
0.638,-0.5612,0.3627,-0.3824,38.111835,-85.2098,183.47841,171.4155,-0.0683,0.1738,3
0.6344,-0.5642,0.3582,-0.3883,38.433907,-86.040215,181.6907,170.47054,-0.1225,0.1406,3
0.6326,-0.5655,0.3562,-0.3912,38.737442,-86.42904,180.851,170.01508,-0.1342,0.124,3
0.6309,-0.5667,0.3543,-0.3939,39.005344,-86.79166,180.06313,169.58226,-0.144,0.0927,3
0.6293,-0.568,0.3523,-0.3963,39.259583,-87.145164,179.29639,169.17422,-0.1469,0.0825,3
0.6278,-0.5693,0.3502,-0.3986,39.503292,-87.488785,178.53561,168.7556,-0.1416,0.0795,3
0.6264,-0.5705,0.3481,-0.4008,39.774597,-87.81223,177.80246,168.33253,-0.1337,0.1127,3
0.625,-0.5716,0.3463,-0.4032,40.05006,-88.12591,177.09404,167.91252,-0.1269,0.1396,3
0.6235,-0.5725,0.3448,-0.4055,40.328213,-88.42055,176.44522,167.53665,-0.1357,0.1489,3
0.6219,-0.5733,0.3437,-0.4077,40.796543,-88.70215,175.8599,167.22845,-0.1552,0.1567,3
0.6192,-0.5745,0.3424,-0.4113,41.0382,-89.14887,174.96858,166.79065,-0.1845,0.1547,3
0.6172,-0.576,0.3414,-0.413,41.04254,-89.49634,174.35796,166.6419,-0.1801,0.1323,3
0.6165,-0.5771,0.3408,-0.4129,40.95686,-89.6454,174.13953,166.69452,-0.1791,0.1176,3
0.6161,-0.5785,0.3402,-0.4121,40.809933,-89.77154,173.99803,166.85042,-0.1557,0.1171,3
0.6159,-0.58,0.3396,-0.4108,40.6069,-89.873726,173.92072,167.07222,-0.1396,0.1196,3
0.616,-0.5815,0.3389,-0.4091,40.354836,-89.94185,173.90143,167.31686,-0.1088,0.1386,3
0.6163,-0.583,0.3383,-0.407,40.09215,-89.97926,173.95818,167.62062,-0.0781,0.1401,3
0.6166,-0.5846,0.3377,-0.4048,39.809067,-90.02093,174.01945,167.94638,-0.0385,0.1494,3
0.6171,-0.5858,0.3376,-0.4024,39.56035,-89.9983,174.22125,168.33206,-0.0039,0.1689,3
0.6176,-0.5864,0.3382,-0.4002,39.400078,-89.91936,174.54422,168.74768,0.041,0.1748,3
0.6179,-0.5863,0.3397,-0.3986,39.273235,-89.79935,174.95941,169.17032,0.0551,0.1801,3
0.618,-0.5845,0.3448,-0.3966,39.188564,-89.457954,176.02196,170.05725,-0.0292,0.104,3
0.6182,-0.5836,0.3476,-0.3954,38.722416,-89.2585,176.62415,170.54953,-0.0688,0.0517,3
0.6199,-0.5823,0.3517,-0.3909,38.34607,-88.760025,177.95148,171.5504,-0.1074,-0.0034,3
0.6215,-0.5819,0.3532,-0.3877,37.839363,-88.45237,178.6997,172.06807,-0.1079,-0.0385,3
0.6237,-0.5816,0.3541,-0.3836,37.214283,-88.09163,179.5192,172.59052,-0.0756,-0.0576,3
0.6266,-0.5815,0.3544,-0.3788,36.5149,-87.68603,180.38364,173.09332,-0.0415,-0.0537,3
0.6298,-0.5815,0.3542,-0.3735,35.77374,-87.26289,181.25774,173.58408,0.0073,-0.038,3
