q0,q1,q2,q3,accX,accY,accZ,gyrX,gyrY,gyrZ,magX,magY,magZ,0
0.4239,-0.4789,0.4911,-0.5912,0.1455,-1.0004,0.0546,0.021,0.001,0.006,-8.25,-5.087,29.099,1
0.424,-0.4789,0.4911,-0.5912,0.1372,-1.0009,0.0502,0.013,0.0,0.002,-8.25,-5.087,29.099,1
0.424,-0.4788,0.4911,-0.5912,0.1459,-1.0112,0.0532,0.013,0.006,0.002,-8.25,-5.087,29.099,1
0.424,-0.4788,0.4911,-0.5912,0.1459,-1.0043,0.0522,0.003,0.008,-0.005,-8.25,-5.087,29.099,1
0.4229,-0.478,0.4915,-0.5924,0.1328,-0.997,0.0556,0.009,0.025,-0.025,-7.8,-4.637,29.549,1
0.4231,-0.4786,0.4911,-0.592,0.1323,-0.9941,0.0493,-0.001,-0.078,-0.019,-5.85,-4.037,27.899,1
0.4248,-0.4805,0.4893,-0.5908,0.1582,-1.0,0.0551,0.011,-0.098,-0.011,-6.15,-5.687,28.649,1
0.4244,-0.485,0.4854,-0.5907,0.1582,-0.997,0.0527,0.021,-0.077,-0.02,-8.4,-6.737,28.199,1
0.4241,-0.4849,0.4855,-0.5909,0.1508,-1.0058,0.0371,-0.004,0.05,0.005,-7.05,-5.087,29.849,1
0.424,-0.4847,0.4857,-0.591,0.1484,-0.996,0.0458,0.004,0.052,0.001,-7.05,-5.087,29.849,1
0.4239,-0.4845,0.4858,-0.5911,0.143,-1.0039,0.04,0.011,0.052,0.001,-7.05,-5.087,29.849,1
0.4235,-0.4837,0.4863,-0.5916,0.1523,-1.0166,0.0625,0.007,0.024,0.013,-7.05,-5.087,29.849,1
0.4226,-0.4804,0.4852,-0.5958,0.1474,-0.9956,0.08,0.062,0.154,-0.035,-7.05,-5.087,29.849,1
0.4221,-0.4796,0.4854,-0.5966,0.1347,-0.9936,0.0771,0.029,0.104,-0.034,-7.05,-5.087,29.849,1
0.4223,-0.4798,0.4847,-0.5969,0.1269,-1.0283,0.0834,0.042,-0.119,-0.039,-7.65,-5.237,28.649,1
0.4228,-0.4802,0.4841,-0.5968,0.1347,-1.0283,0.0942,0.057,-0.16,-0.041,-7.65,-5.237,28.649,1
0.4233,-0.4805,0.4834,-0.5967,0.1372,-1.0239,0.1137,0.095,-0.158,-0.04,-7.65,-5.237,28.649,1
0.4238,-0.4807,0.4825,-0.5969,0.1489,-1.0092,0.1123,0.15,-0.147,-0.069,-7.65,-5.237,28.649,1
0.4248,-0.4808,0.4802,-0.598,0.163,-1.0126,0.1201,0.232,-0.084,-0.12,-7.65,-5.237,28.649,1
0.4255,-0.4804,0.4778,-0.5997,0.1757,-1.0263,0.1215,0.089,0.041,-0.051,-7.65,-5.237,28.649,1
0.4254,-0.4802,0.4774,-0.6003,0.1733,-1.0234,0.1074,0.104,0.07,-0.091,-7.65,-5.237,28.649,1
0.4246,-0.4796,0.4767,-0.6019,0.1552,-1.0131,0.1157,0.092,0.136,-0.136,-7.65,-5.237,28.649,1
0.4241,-0.4793,0.4764,-0.6027,0.1411,-0.998,0.1166,0.078,0.133,-0.151,-7.65,-5.237,28.649,1
0.4236,-0.4792,0.4759,-0.6035,0.1274,-0.9594,0.1118,0.094,0.098,-0.187,-7.65,-5.237,28.649,1
0.3879,-0.4791,0.4764,-0.6268,0.0458,-0.9956,0.0434,-0.113,-0.41,-0.217,-9.9,-5.237,28.199,1
0.3883,-0.4807,0.4758,-0.6258,0.0268,-1.018,0.0322,-0.089,-0.392,-0.166,-9.9,-5.237,28.199,1
0.4211,-0.4912,0.4687,-0.6013,0.2373,-0.9531,0.143,0.014,0.185,0.369,-11.85,-7.037,29.849,1
0.4196,-0.4759,0.4821,-0.6041,0.1064,-0.9189,0.0454,-0.004,0.625,0.442,-11.85,-7.037,29.849,1
0.4043,-0.4219,0.5243,-0.6192,-0.0385,-1.0771,0.0253,-0.069,1.143,0.215,-1.2,-5.837,26.999,1
0.4001,-0.4152,0.5299,-0.6217,-0.0551,-1.082,0.0024,-0.111,0.944,0.158,-1.2,-5.837,26.999,1
0.3803,-0.4102,0.5391,-0.6295,-0.0439,-1.3188,-0.0419,-0.003,-0.219,-0.563,-1.2,-5.837,26.999,1
0.3799,-0.4129,0.5372,-0.6296,0.0141,-1.3911,-0.041,-0.004,-0.451,-0.52,-1.2,-5.837,26.999,1
0.3799,-0.4156,0.5352,-0.6295,0.0766,-1.3969,-0.0029,0.029,-0.511,-0.469,-1.2,-5.837,26.999,1
0.3794,-0.4178,0.5333,-0.63,0.143,-1.3671,0.0429,0.093,-0.335,-0.499,2.849,-6.437,28.649,1
0.3498,-0.4667,0.5052,-0.636,0.4013,-0.8261,0.0502,0.154,-0.66,0.22,2.849,-6.437,28.649,1
0.352,-0.4664,0.5043,-0.6357,0.4028,-0.871,0.0678,0.319,-0.288,0.328,2.849,-6.437,28.649,1
0.3162,-0.4546,0.5022,-0.664,0.1743,-0.956,0.0903,-0.54,0.627,-1.182,-4.95,-8.087,32.099,1
0.2951,-0.4718,0.493,-0.6687,0.2011,-0.7133,0.0527,-0.07,-0.304,-1.117,-4.95,-8.087,32.099,1
0.292,-0.4755,0.4902,-0.6694,0.2421,-0.7001,0.0727,-0.073,-0.285,-1.125,-4.95,-8.087,32.099,1
0.2887,-0.4788,0.4875,-0.6705,0.2734,-0.6943,0.0874,-0.042,-0.191,-1.116,-4.95,-8.087,32.099,1
0.2528,-0.4868,0.4761,-0.6872,0.3427,-1.0087,0.1083,-0.243,0.479,-0.608,-11.4,-13.637,-27.887,1
0.2343,-0.48,0.4807,-0.6953,0.249,-1.1665,0.1933,-0.415,1.167,-0.456,-11.4,-13.637,-27.887,1
0.2186,-0.4745,0.4857,-0.7007,0.1972,-1.2968,0.1523,-0.467,0.962,-0.49,-11.4,-13.637,-27.887,1
0.2061,-0.4716,0.4891,-0.7041,0.0971,-1.2382,0.1518,-0.442,0.53,-0.426,-11.4,-13.637,-27.887,1
0.2031,-0.4722,0.4902,-0.7038,0.0844,-1.2275,0.1386,-0.501,0.231,-0.386,-11.4,-13.637,-27.887,1
0.2004,-0.4769,0.492,-0.7001,0.0732,-1.3203,0.0493,-0.558,-0.564,-0.226,-11.4,-13.637,-27.887,1
0.2014,-0.4815,0.4924,-0.6964,0.1274,-1.4067,-0.0078,-0.532,-1.125,-0.118,-11.4,-13.637,-27.887,1
0.246,-0.5292,0.4724,-0.6604,0.4145,-0.7416,0.0361,0.618,-1.888,0.257,-13.5,-15.887,-23.837,1
0.2536,-0.5338,0.4689,-0.6563,0.3916,-0.7182,0.0454,0.664,-1.988,0.426,-13.5,-15.887,-23.837,1
0.3073,-0.5551,0.4521,-0.6268,0.4653,-0.7607,-0.2089,1.172,-2.803,1.253,-13.5,-15.887,-23.837,1
0.3353,-0.5623,0.4411,-0.6137,0.5009,-0.8046,-0.2026,1.665,-2.805,1.343,-13.5,-15.887,-23.837,1
0.4382,-0.4495,0.4865,-0.6074,0.1176,-0.789,0.0166,-0.171,1.262,1.357,-8.55,-22.187,32.399,1
0.4394,-0.4434,0.4926,-0.6062,0.1054,-0.8164,0.0004,-0.222,1.091,1.435,-8.55,-22.187,32.399,1
0.4414,-0.4378,0.4984,-0.604,0.081,-0.8422,-0.0107,-0.27,0.822,1.567,-8.55,-22.187,32.399,1
0.4442,-0.4327,0.504,-0.601,0.0419,-0.8481,-0.0307,-0.282,0.592,1.651,-8.55,-22.187,32.399,1
0.4557,-0.4194,0.5158,-0.5918,0.0234,-0.8925,-0.0844,0.088,0.07,1.514,-8.55,-22.187,32.399,1
0.4827,-0.382,0.5375,-0.5762,0.0878,-1.1997,0.0766,-0.03,1.092,0.68,1.649,-26.837,28.049,1
0.4777,-0.3747,0.5442,-0.5789,0.0317,-1.1645,0.0952,-0.079,1.13,0.089,1.649,-26.837,28.049,1
0.4615,-0.372,0.5509,-0.5872,0.1547,-1.3061,0.1054,-0.3,0.535,-0.401,1.649,-26.837,28.049,1
0.4581,-0.3716,0.5525,-0.5888,0.1684,-1.3652,0.1298,-0.223,0.724,-0.404,1.649,-26.837,28.049,1
0.453,-0.37,0.5542,-0.592,0.1381,-1.3247,0.1713,-0.094,1.172,-0.606,1.649,-26.837,28.049,1
0.4458,-0.3675,0.5562,-0.5972,0.0668,-1.2299,0.1865,0.05,1.71,-0.927,1.649,-26.837,28.049,1
0.4267,-0.3617,0.5605,-0.6105,-0.0625,-0.9985,0.1557,-0.028,2.207,-1.404,1.649,-26.837,28.049,1
0.3649,-0.3895,0.5655,-0.6285,-0.083,-1.0566,0.0786,-0.253,-0.929,-1.261,1.349,-28.187,-29.687,1
0.3647,-0.3972,0.5604,-0.6285,-0.0488,-1.0322,0.0419,0.075,-1.366,-1.405,1.349,-28.187,-29.687,1
0.2858,-0.4695,0.4895,-0.6769,0.2758,-0.937,0.122,0.075,0.876,-1.365,-15.0,-31.937,-22.037,1
0.265,-0.4666,0.4865,-0.6893,0.2358,-1.0771,0.1953,-0.142,1.28,-1.228,-15.0,-31.937,-22.037,1
0.2572,-0.4652,0.4862,-0.6934,0.206,-1.123,0.2055,-0.227,1.368,-1.235,-15.0,-31.937,-22.037,1
0.2489,-0.4639,0.4863,-0.6972,0.1733,-1.1699,0.2021,-0.338,1.394,-1.241,-15.0,-31.937,-22.037,1
0.2407,-0.4632,0.4865,-0.7004,0.1074,-1.2182,0.163,-0.458,1.242,-1.26,-15.0,-31.937,-22.037,1
0.2198,-0.4682,0.4862,-0.7042,0.062,-1.2641,0.0761,-0.635,0.232,-1.197,-15.0,-31.937,-22.037,1
0.2021,-0.5002,0.4821,-0.6902,0.1601,-1.122,-0.1245,-0.321,-1.906,-0.268,-15.0,-31.937,-22.037,1
0.2074,-0.5089,0.4801,-0.6836,0.2919,-1.1303,-0.1494,-0.193,-2.541,-0.05,-23.55,30.149,-15.437,1
0.2225,-0.5262,0.475,-0.6692,0.6,-1.0434,-0.1225,0.166,-2.801,0.33,-23.55,30.149,-15.437,1
0.3115,-0.5459,0.4554,-0.6304,0.5151,-0.9975,-0.1303,1.103,-1.408,1.824,-23.55,30.149,-15.437,1
0.3453,-0.5367,0.4561,-0.6201,0.5205,-0.9492,0.0024,1.161,-0.706,2.081,-23.55,30.149,-15.437,1
0.3548,-0.5311,0.4573,-0.6187,0.4731,-0.8979,0.0434,1.164,-0.247,2.052,-23.55,30.149,-15.437,1
0.3698,-0.5159,0.4622,-0.6191,0.392,-0.7709,0.0883,1.053,0.697,1.922,-23.55,30.149,-15.437,1
0.4492,-0.4008,0.542,-0.5862,0.1289,-1.1132,-0.0493,-0.121,0.517,1.349,-27.75,32.249,-11.687,1
0.4507,-0.3961,0.5465,-0.584,0.1386,-1.1684,-0.0517,-0.237,0.637,1.285,-27.75,32.249,-11.687,1
0.4507,-0.3826,0.5609,-0.5794,0.0634,-1.2993,-0.0458,-0.153,0.562,0.398,-14.85,-23.087,-20.387,1
0.449,-0.3822,0.5602,-0.5816,-0.0112,-1.2348,0.0312,0.172,-0.077,-0.405,-14.85,-23.087,-20.387,1
0.4482,-0.3836,0.5585,-0.5829,0.0361,-1.2036,0.0815,0.157,-0.132,-0.524,-14.85,-23.087,-20.387,1
0.4451,-0.3885,0.5539,-0.5865,0.1958,-1.2177,0.1962,0.06,0.152,-0.426,-14.85,-23.087,-20.387,1
0.4102,-0.3889,0.5597,-0.6058,0.1943,-0.9995,0.0976,-0.755,1.177,-1.189,-14.85,-23.087,-20.387,1
0.3967,-0.3985,0.5598,-0.6084,0.184,-1.1162,0.187,-0.365,-0.175,-0.9,-14.85,-23.087,-20.387,1
0.394,-0.4018,0.5588,-0.609,0.1704,-1.1333,0.2309,-0.299,-0.148,-0.849,-14.85,-23.087,-20.387,1
0.3907,-0.4045,0.5581,-0.61,0.125,-1.0952,0.2124,-0.286,0.078,-0.862,-14.85,-23.087,-20.387,1
0.3868,-0.4067,0.5573,-0.6117,0.0668,-1.0605,0.1567,-0.242,0.237,-0.952,-15.6,-17.237,-19.337,1
0.3831,-0.4095,0.5558,-0.6136,0.0209,-1.0078,0.101,-0.152,0.118,-1.084,-15.6,-17.237,-19.337,1
0.3801,-0.4136,0.553,-0.6152,-0.0009,-0.9453,0.0634,-0.054,-0.258,-1.255,-15.6,-17.237,-19.337,1
0.3726,-0.4322,0.5382,-0.6201,0.2456,-0.7485,0.1376,0.157,-0.733,-1.704,-15.6,-17.237,-19.337,1
0.3563,-0.4461,0.5269,-0.6295,0.3232,-0.6445,0.1347,-0.134,0.295,-1.788,-15.6,-17.237,-19.337,1
0.3499,-0.45,0.5242,-0.6326,0.2968,-0.644,0.1098,-0.185,0.281,-1.744,-15.6,-17.237,-19.337,1
0.3442,-0.4541,0.5212,-0.6352,0.2773,-0.6542,0.1083,-0.166,0.101,-1.661,-15.6,-17.237,-19.337,1
0.336,-0.4627,0.5141,-0.6391,0.2495,-0.7148,0.0683,0.057,-0.266,-1.397,-15.6,-17.237,-19.337,1
0.2996,-0.4814,0.4696,-0.6766,0.3305,-1.2011,0.2416,-0.078,1.206,-1.005,-28.5,-17.987,-13.487,1
0.2842,-0.476,0.4717,-0.6855,0.2133,-1.25,0.1518,-0.409,1.708,-0.982,-28.5,-17.987,-13.487,1
0.2686,-0.472,0.4753,-0.6921,0.0927,-1.2563,0.0429,-0.616,1.339,-0.913,-28.5,-17.987,-13.487,1
0.2492,-0.4712,0.4799,-0.6967,0.083,-1.1528,0.0795,-0.726,0.802,-0.793,-28.5,-17.987,-13.487,1
0.2429,-0.4709,0.4818,-0.6978,0.0952,-1.1313,0.1181,-0.757,0.867,-0.735,-28.5,-17.987,-13.487,1
0.2237,-0.473,0.4905,-0.6968,-0.0322,-1.4389,-0.0805,-0.85,-0.324,-0.306,-28.5,-17.987,-13.487,1
0.2333,-0.4918,0.4871,-0.6829,0.2812,-1.123,-0.103,0.044,-2.208,-0.002,-28.5,-17.987,-13.487,1
0.2396,-0.4995,0.4836,-0.6775,0.352,-0.9785,-0.1069,0.257,-2.41,-0.042,-28.2,-14.387,-12.137,1
0.2602,-0.5245,0.4713,-0.6595,0.4584,-0.8247,-0.082,0.324,-2.787,0.075,-28.2,-14.387,-12.137,1
0.2779,-0.5398,0.462,-0.6463,0.5483,-0.9199,0.0122,0.643,-2.852,0.443,-28.2,-14.387,-12.137,1
0.309,-0.5526,0.4491,-0.6303,0.602,-0.8857,0.0195,1.07,-2.172,1.003,-28.2,-14.387,-12.137,1
0.3194,-0.5547,0.4456,-0.6257,0.602,-0.8476,-0.017,1.084,-1.999,1.123,-28.2,-14.387,-12.137,1
0.3399,-0.557,0.44,-0.6168,0.5581,-0.8222,-0.0712,1.075,-1.734,1.339,-28.2,-14.387,-12.137,1
0.3501,-0.5571,0.438,-0.6124,0.5341,-0.8188,-0.0537,1.051,-1.573,1.441,-28.2,-14.387,-12.137,1
0.3873,-0.5323,0.4461,-0.6061,0.3642,-0.7539,0.0405,0.766,1.069,1.784,-28.2,-14.387,-12.137,1
0.4393,-0.4331,0.5176,-0.5927,0.2231,-1.1191,-0.102,-0.495,0.354,1.415,-10.8,-10.037,-23.687,1
0.4442,-0.4254,0.5255,-0.5877,0.1845,-1.1918,-0.1162,-0.049,0.334,1.229,-10.8,-10.037,-23.687,1
0.4465,-0.4214,0.5278,-0.5867,0.1298,-1.1733,-0.0913,0.181,0.368,0.993,-10.8,-10.037,-23.687,1
0.451,-0.4107,0.5309,-0.5881,0.0966,-1.1567,-0.0336,0.221,0.252,0.158,14.999,-11.687,-32.237,1
0.4506,-0.4089,0.5323,-0.5884,0.2583,-1.2587,0.1538,-0.25,0.119,0.132,14.999,-11.687,-32.237,1
0.4485,-0.4082,0.5345,-0.5885,0.2993,-1.2739,0.2236,-0.366,0.528,-0.004,14.999,-11.687,-32.237,1
0.4437,-0.4065,0.5375,-0.5905,0.29,-1.2041,0.2954,-0.389,1.202,-0.317,14.999,-11.687,-32.237,1
0.3865,-0.4342,0.5487,-0.6007,0.187,-0.892,0.1381,0.378,-0.509,-1.127,14.249,-16.337,-25.637,1
0.3837,-0.4367,0.545,-0.6041,0.2407,-0.7812,0.0996,0.405,0.013,-1.246,14.249,-16.337,-25.637,1
0.3788,-0.4383,0.5422,-0.6085,0.2607,-0.6899,0.0561,0.274,0.524,-1.389,14.249,-16.337,-25.637,1
0.3249,-0.5044,0.4685,-0.6483,0.416,-0.9096,0.0791,0.291,-0.466,-1.544,14.249,-16.337,-25.637,1
0.3079,-0.5106,0.456,-0.6605,0.4316,-1.0375,0.1962,0.087,0.895,-1.703,14.249,-16.337,-25.637,1
0.2795,-0.5067,0.4549,-0.6768,0.2885,-1.2519,0.1694,-0.53,1.929,-1.456,2.249,-19.637,-23.687,1
0.2334,-0.5607,0.443,-0.6593,0.6962,-0.9023,-0.0351,0.351,-2.892,-0.009,2.249,-19.637,-23.687,1
0.2524,-0.5819,0.4287,-0.6432,0.6298,-0.7597,-0.0268,0.634,-2.25,0.054,-3.75,-26.087,-18.137,1
0.2597,-0.587,0.4245,-0.6384,0.5903,-0.7998,-0.0063,0.726,-2.145,0.311,-3.75,-26.087,-18.137,1
0.2985,-0.5957,0.4146,-0.6196,0.5317,-0.8305,-0.1625,1.143,-1.796,1.418,-3.75,-26.087,-18.137,1
0.3105,-0.5969,0.4127,-0.6139,0.539,-0.8666,-0.2246,1.221,-1.954,1.576,-3.75,-26.087,-18.137,1
0.3923,-0.5687,0.4143,-0.5923,0.5195,-0.8125,0.0517,1.417,0.925,2.376,-3.75,-26.087,-18.137,1
0.3998,-0.5574,0.4201,-0.5939,0.4946,-0.7924,0.0585,1.211,1.391,2.525,-3.75,-26.087,-18.137,1
0.4062,-0.545,0.428,-0.5955,0.4663,-0.7573,0.0561,0.942,1.794,2.643,-3.75,-26.087,-18.137,1
0.4115,-0.532,0.437,-0.597,0.4316,-0.7382,0.0327,0.712,2.075,2.69,-3.75,-26.087,-18.137,1
0.4158,-0.5189,0.4468,-0.5984,0.3896,-0.7143,0.02,0.509,2.211,2.673,-3.75,-26.087,-18.137,1
0.4256,-0.474,0.4841,-0.5996,0.1875,-0.7495,0.0175,-0.072,1.734,2.088,-1.05,27.449,-22.037,1
0.4362,-0.4259,0.5229,-0.5957,-0.0673,-0.9541,-0.0454,-0.009,1.404,2.182,-1.05,27.449,-22.037,1
0.4391,-0.417,0.5302,-0.5934,-0.0917,-0.9516,-0.059,-0.036,1.237,2.119,-1.05,27.449,-22.037,1
0.4577,-0.3919,0.5495,-0.5786,-0.0507,-1.081,-0.0175,0.056,-0.371,1.246,-1.05,27.449,-22.037,1
0.4709,-0.3864,0.5526,-0.5686,0.02,-1.3134,-0.0083,-0.049,-0.426,1.106,-1.05,27.449,-22.037,1
0.4763,-0.3838,0.5543,-0.5643,0.0019,-1.2011,-0.0327,0.055,-0.235,0.595,-1.05,27.449,-22.037,1
0.4782,-0.3839,0.5534,-0.5634,-0.0307,-1.1293,-0.0366,0.142,-0.385,0.241,-1.05,27.449,-22.037,1
0.4755,-0.4001,0.5402,-0.5673,0.2963,-1.3422,0.185,-0.206,0.735,-0.458,-3.3,18.599,-17.687,1
0.47,-0.3981,0.5423,-0.5713,0.2666,-1.2207,0.226,-0.044,1.4,-0.651,-3.3,18.599,-17.687,1
0.3578,-0.4528,0.5157,-0.6331,0.2236,-0.6977,-0.0117,0.08,-0.803,-1.979,-11.4,18.599,-11.837,1
0.3444,-0.4729,0.5,-0.6384,0.3813,-0.7363,0.0698,-0.04,-0.465,-1.882,-11.4,18.599,-11.837,1
0.3395,-0.4781,0.4952,-0.6409,0.4204,-0.7695,0.0507,0.031,-0.284,-1.824,-11.4,18.599,-11.837,1
0.3342,-0.4825,0.4906,-0.6439,0.4477,-0.79,0.0468,0.083,-0.061,-1.738,-11.4,18.599,-11.837,1
0.3282,-0.4855,0.4867,-0.6476,0.4555,-0.7939,0.0698,0.085,0.312,-1.686,-11.4,18.599,-11.837,1
0.3213,-0.4868,0.4838,-0.6523,0.4521,-0.8212,0.0795,0.063,0.805,-1.609,-11.4,18.599,-11.837,1
0.3133,-0.4863,0.4821,-0.6579,0.4414,-0.852,0.101,0.004,1.308,-1.512,-11.4,18.599,-11.837,1
0.3042,-0.484,0.4815,-0.6642,0.4179,-0.9042,0.1318,-0.083,1.799,-1.439,-11.4,18.599,-11.837,1
0.2941,-0.4801,0.4821,-0.6712,0.3979,-0.9721,0.165,-0.174,2.267,-1.382,-11.4,18.599,-11.837,1
0.2829,-0.4746,0.4836,-0.6788,0.3398,-1.0087,0.1816,-0.264,2.716,-1.336,-11.4,18.599,-11.837,1
0.2581,-0.4609,0.4887,-0.6942,0.1572,-1.0957,0.1318,-0.476,3.14,-1.285,-19.05,13.649,-8.537,1
0.1937,-0.4455,0.496,-0.7196,-0.1093,-1.225,0.0551,-0.561,0.873,-1.333,-19.05,13.649,-8.537,1
0.1825,-0.4497,0.4942,-0.7211,-0.0893,-1.1508,0.0351,-0.322,0.102,-1.097,-19.05,13.649,-8.537,1
0.1798,-0.4526,0.4932,-0.7207,-0.0454,-1.0932,0.0551,-0.24,-0.234,-0.992,-19.05,13.649,-8.537,1
0.1771,-0.4613,0.4907,-0.7175,0.0263,-1.0292,0.0097,-0.251,-0.894,-0.883,-19.05,13.649,-8.537,1
0.1829,-0.4869,0.4837,-0.7038,0.2182,-1.208,-0.0883,-0.155,-2.603,-0.529,-19.05,13.649,-8.537,1
0.1892,-0.4981,0.4804,-0.6965,0.354,-1.2338,-0.0849,-0.033,-3.097,-0.264,-19.05,13.649,-8.537,1
0.2059,-0.5188,0.4736,-0.6811,0.6562,-1.1459,-0.0869,0.255,-3.196,0.242,-19.05,13.649,-8.537,1
0.2217,-0.533,0.4673,-0.6694,0.7314,-0.892,-0.0854,0.456,-2.287,0.317,-19.05,13.649,-8.537,1
0.3605,-0.4979,0.4747,-0.6298,0.2529,-0.8598,0.0209,0.823,1.396,2.443,-31.05,8.549,-1.787,1
0.3659,-0.4864,0.4809,-0.631,0.1918,-0.8339,0.0004,0.739,1.56,2.391,-31.05,8.549,-1.787,1
0.3709,-0.4751,0.487,-0.6319,0.1293,-0.8208,-0.0332,0.642,1.531,2.31,-31.05,8.549,-1.787,1
0.3867,-0.4476,0.5028,-0.6301,0.0278,-0.8662,-0.0649,0.37,0.668,2.147,27.136,15.749,1.813,1
0.3929,-0.4408,0.5072,-0.6276,0.0151,-0.8891,-0.0732,0.278,0.363,2.127,27.136,15.749,1.813,1
0.3995,-0.4349,0.5114,-0.6241,0.0288,-0.9204,-0.0727,0.241,0.095,2.098,27.136,15.749,1.813,1
0.4062,-0.4298,0.5151,-0.6203,0.0239,-0.9199,-0.0585,0.199,-0.085,2.017,27.136,15.749,1.813,1
0.4127,-0.4255,0.5183,-0.6163,0.0122,-0.9384,-0.0502,0.164,-0.204,1.888,27.136,15.749,1.813,1
0.4329,-0.4165,0.5249,-0.6028,0.0356,-0.9785,-0.0356,0.134,-0.733,1.686,27.136,15.749,1.813,1
0.4399,-0.4148,0.5262,-0.5977,0.0727,-0.9736,-0.0356,0.091,-0.864,1.64,27.136,15.749,1.813,1
0.4584,-0.4118,0.5295,-0.5828,0.1674,-1.0092,-0.0512,-0.035,-0.862,1.388,27.136,15.749,1.813,1
0.4641,-0.4114,0.53,-0.5781,0.1694,-1.0375,-0.0498,0.001,-0.913,1.291,27.136,15.749,1.813,1
0.4699,-0.4113,0.5299,-0.5736,0.2016,-1.0761,-0.0566,0.082,-1.015,1.221,27.136,15.749,1.813,1
0.4904,-0.3958,0.5316,-0.5657,0.1796,-1.0253,0.0234,0.074,0.878,-0.021,27.736,25.499,6.013,1
0.4871,-0.394,0.5336,-0.568,0.1816,-1.0703,0.0371,-0.031,0.976,-0.155,27.736,25.499,6.013,1
0.4474,-0.375,0.5563,-0.5911,0.02,-1.1381,0.1918,-0.143,2.716,-1.116,27.736,25.499,6.013,1
0.4164,-0.3703,0.5649,-0.6084,-0.0493,-1.0214,0.123,-0.546,1.487,-1.419,27.736,25.499,6.013,1
0.3903,-0.3957,0.5649,-0.6098,0.0278,-1.0161,0.1582,-0.225,-0.312,-0.732,27.736,25.499,6.013,1
0.379,-0.4493,0.5123,-0.626,0.3139,-0.7446,0.1347,0.084,-1.312,-1.559,22.036,26.549,3.613,1
0.3781,-0.4565,0.506,-0.6265,0.353,-0.7832,0.1455,0.215,-1.281,-1.504,22.036,26.549,3.613,1
0.3374,-0.4846,0.4642,-0.66,0.2084,-0.9868,0.0781,-0.035,0.148,-1.631,10.186,21.449,10.813,1
0.3317,-0.488,0.4611,-0.6627,0.2031,-1.0424,0.1,-0.121,0.129,-1.659,10.186,21.449,10.813,1
0.2873,-0.5112,0.4542,-0.6706,0.2177,-1.1918,0.1503,-1.113,0.216,-1.47,10.186,21.449,10.813,1
0.2642,-0.5196,0.4587,-0.6705,0.2089,-1.1831,0.0756,-1.112,0.523,-1.067,10.186,21.449,10.813,1
0.2571,-0.521,0.4602,-0.6711,0.1938,-1.1542,0.0747,-0.989,0.626,-0.982,10.186,21.449,10.813,1
0.2451,-0.5227,0.463,-0.6724,0.124,-1.0444,0.0556,-0.78,0.543,-0.84,10.186,21.449,10.813,1
0.3571,-0.5538,0.4424,-0.6082,0.4189,-0.9301,-0.0903,0.918,0.144,1.666,-2.114,14.399,20.863,1
0.3653,-0.549,0.4443,-0.6063,0.4155,-1.0126,-0.1215,0.892,-0.224,1.823,0.436,28.199,24.463,1
0.3744,-0.5447,0.4454,-0.6037,0.4213,-1.019,-0.0874,0.983,-0.516,1.852,0.436,28.199,24.463,1
0.4555,-0.4147,0.5163,-0.5948,0.0454,-0.9697,0.0312,0.108,1.282,1.02,14.836,-16.337,5.563,1
0.4499,-0.3975,0.5381,-0.5915,0.0488,-1.2509,0.0947,-0.102,0.207,0.091,14.836,-16.337,5.563,1
0.4451,-0.3903,0.5415,-0.5968,0.0136,-1.1909,0.1079,0.183,0.895,-0.023,14.836,-16.337,5.563,1
0.4428,-0.3874,0.5434,-0.5987,0.0312,-1.228,0.1147,0.04,0.941,0.008,14.836,-16.337,5.563,1
0.4399,-0.3848,0.5459,-0.6001,0.0415,-1.2495,0.1323,-0.131,1.001,0.022,26.386,-8.537,-4.787,1
0.422,-0.3798,0.5554,-0.6075,-0.0351,-0.9033,0.2021,-0.344,0.264,-0.5,26.386,-8.537,-4.787,1
0.4206,-0.3903,0.5526,-0.6043,0.1054,-0.8959,0.2221,-0.394,-0.876,-0.356,26.386,-8.537,-4.787,1
0.423,-0.4017,0.5476,-0.5997,0.1655,-0.9741,0.2348,-0.236,-0.65,-0.275,26.386,-8.537,-4.787,1
0.4228,-0.4041,0.5463,-0.5994,0.1479,-0.9897,0.2182,-0.168,-0.42,-0.329,26.386,-8.537,-4.787,1
0.4222,-0.4061,0.545,-0.5997,0.1264,-1.0161,0.1806,-0.073,-0.263,-0.396,26.386,-8.537,-4.787,1
0.4094,-0.4552,0.4929,-0.6181,0.3286,-0.9086,0.1967,0.317,-0.778,-1.016,21.436,-7.187,0.164,1
0.406,-0.4618,0.482,-0.624,0.2543,-0.9555,0.1591,0.318,-0.072,-0.726,21.436,-7.187,0.164,1
0.4044,-0.4625,0.4798,-0.6262,0.2285,-0.9731,0.142,0.273,0.099,-0.657,21.436,-7.187,0.164,1
0.4026,-0.4628,0.4782,-0.6284,0.2021,-1.0043,0.123,0.223,0.205,-0.608,21.436,-7.187,0.164,1
0.3983,-0.4634,0.4755,-0.6327,0.1513,-1.0205,0.1181,0.143,0.273,-0.657,21.436,-7.187,0.164,1
0.3908,-0.4673,0.4708,-0.638,0.1455,-1.0029,0.1181,-0.044,0.014,-0.83,21.436,-7.187,0.164,1
0.4868,-0.5182,0.4457,-0.5437,0.1318,-0.9936,0.0756,-0.001,0.003,0.005,-1.2,-3.587,28.049,2
0.4868,-0.5182,0.4457,-0.5437,0.1411,-1.0073,0.0708,0.003,0.004,0.001,-1.2,-3.587,28.049,2
0.4867,-0.5181,0.4458,-0.5438,0.1362,-1.0048,0.0722,-0.004,0.012,0.002,-1.2,-3.587,28.049,2
0.4867,-0.5181,0.4459,-0.5438,0.1337,-1.0058,0.0654,-0.009,0.022,0.004,-1.2,-3.587,28.049,2
0.4866,-0.5178,0.4462,-0.5439,0.1284,-1.0009,0.0634,0.001,0.02,0.013,-1.2,-3.587,28.049,2
0.4866,-0.5177,0.4462,-0.544,0.125,-1.0063,0.0668,0.006,0.019,0.011,-1.2,-3.587,28.049,2
0.4866,-0.5176,0.4463,-0.544,0.1254,-1.0024,0.0659,0.0,0.016,0.002,-1.2,-3.587,28.049,2
0.4866,-0.5171,0.4466,-0.5442,0.1293,-0.9931,0.0693,0.003,-0.001,0.004,-2.1,-4.937,27.899,2
0.4866,-0.5171,0.4466,-0.5442,0.122,-0.9975,0.0747,0.0,0.004,0.005,-2.1,-4.937,27.899,2
0.4866,-0.5171,0.4466,-0.5442,0.1293,-1.0029,0.0659,0.0,-0.007,0.002,-2.1,-4.937,27.899,2
0.4868,-0.5172,0.4465,-0.544,0.1279,-1.0014,0.0737,0.007,-0.009,0.004,-0.9,-5.087,26.699,2
0.4869,-0.5172,0.4464,-0.544,0.1401,-1.0083,0.0732,-0.001,0.009,0.0,-0.9,-5.087,26.699,2
0.4774,-0.5133,0.453,-0.5507,0.0942,-1.0131,0.1279,-0.06,0.267,-0.111,-1.35,-4.487,27.149,2
0.4756,-0.5126,0.4536,-0.5523,0.0625,-0.9965,0.1313,-0.044,0.212,-0.16,-1.35,-4.487,27.149,2
0.4748,-0.5125,0.4537,-0.5531,0.0556,-0.999,0.1455,-0.043,0.175,-0.177,-1.35,-4.487,27.149,2
0.474,-0.5124,0.4536,-0.5538,0.0366,-0.9956,0.1381,-0.022,0.145,-0.196,-1.35,-4.487,27.149,2
0.4724,-0.5144,0.451,-0.5556,0.0537,-0.9794,0.1152,0.027,-0.13,-0.291,-0.6,-3.287,27.899,2
0.4716,-0.5163,0.4485,-0.5565,0.0805,-0.937,0.1088,0.034,-0.166,-0.353,-0.6,-3.287,27.899,2
0.4711,-0.5175,0.447,-0.557,0.0957,-0.9218,0.104,0.019,-0.18,-0.387,-0.6,-3.287,27.899,2
0.4705,-0.5187,0.4455,-0.5576,0.102,-0.8891,0.1049,0.019,-0.176,-0.422,-0.6,-3.287,27.899,2
0.4696,-0.5201,0.4441,-0.5582,0.1079,-0.8769,0.1035,0.009,-0.138,-0.445,-0.6,-3.287,27.899,2
0.4672,-0.5224,0.4416,-0.56,0.1103,-0.8676,0.0605,-0.029,-0.02,-0.459,-0.6,-3.287,27.899,2
0.4641,-0.5252,0.4394,-0.5617,0.0766,-1.0092,-0.0566,-0.032,-0.07,-0.296,-0.6,-3.287,27.899,2
0.4555,-0.5307,0.4361,-0.5661,0.1733,-1.0717,0.0991,-0.163,0.534,-0.464,-5.25,-3.587,29.099,2
0.4526,-0.53,0.4372,-0.5682,0.1284,-1.0815,0.122,-0.216,0.687,-0.388,-5.25,-3.587,29.099,2
0.4493,-0.5286,0.4393,-0.5706,0.0957,-1.1,0.1489,-0.269,0.903,-0.263,-5.25,-3.587,29.099,2
0.4459,-0.5267,0.4417,-0.5731,0.019,-1.1079,0.1196,-0.244,1.037,-0.201,-5.25,-3.587,29.099,2
0.4433,-0.5249,0.4439,-0.5751,-0.0659,-1.0908,0.0732,-0.201,0.861,-0.188,-5.25,-3.587,29.099,2
0.4416,-0.5253,0.4447,-0.5754,-0.1762,-1.0781,0.0249,-0.101,-0.176,-0.263,-5.25,-3.587,29.099,2
0.4488,-0.5365,0.4335,-0.568,0.0385,-0.9477,0.0302,0.237,-0.684,-0.133,-5.25,-3.587,29.099,2
0.4769,-0.5278,0.4353,-0.5516,0.0517,-1.101,0.0424,0.14,0.06,0.269,-6.3,-4.637,31.049,2
0.4779,-0.5269,0.4357,-0.5514,0.0468,-1.1196,0.0239,0.136,0.036,0.261,-6.3,-4.637,31.049,2
0.4815,-0.5271,0.4396,-0.5449,0.1762,-1.3364,-0.0239,-0.153,0.11,0.109,-1.05,-5.237,28.199,2
0.4777,-0.5293,0.4394,-0.5462,0.3144,-1.2006,0.018,-0.15,0.0,-0.418,-1.05,-5.237,28.199,2
0.4761,-0.5307,0.4384,-0.5471,0.375,-1.1689,0.0288,-0.106,-0.01,-0.5,-1.05,-5.237,28.199,2
0.475,-0.532,0.4369,-0.548,0.4179,-1.1499,0.0629,-0.006,-0.104,-0.486,-1.05,-5.237,28.199,2
0.4745,-0.5336,0.4343,-0.5488,0.3271,-1.0532,0.1025,0.076,-0.122,-0.223,-1.05,-5.237,28.199,2
0.4742,-0.5344,0.4334,-0.549,0.2963,-0.9511,0.0605,0.017,-0.137,-0.177,-1.05,-5.237,28.199,2
0.476,-0.5378,0.429,-0.5477,0.4414,-0.7592,0.0747,0.148,-0.427,-0.085,-1.05,-5.237,28.199,2
0.4769,-0.5379,0.4281,-0.5475,0.5112,-0.7236,0.1293,0.174,-0.21,0.012,-1.05,-5.237,28.199,2
0.476,-0.5347,0.4303,-0.5496,0.4877,-0.7143,0.1684,-0.012,0.673,0.233,-1.05,-5.237,28.199,2
0.4639,-0.5227,0.448,-0.5574,0.246,-1.0053,0.0117,-0.504,1.442,0.199,-2.25,-9.587,29.549,2
0.45,-0.5148,0.4587,-0.5674,0.1,-1.0468,0.0356,-0.13,0.77,-0.41,-2.25,-9.587,29.549,2
0.4472,-0.5146,0.4588,-0.5697,0.103,-1.0307,0.04,-0.065,0.561,-0.533,-2.25,-9.587,29.549,2
0.4189,-0.5274,0.4405,-0.5935,0.2119,-0.8066,0.1499,0.025,0.185,-0.78,-2.25,-9.587,29.549,2
0.4159,-0.5276,0.4395,-0.5961,0.2172,-0.81,0.1757,0.019,0.448,-0.713,-4.2,-11.237,31.649,2
0.4123,-0.5268,0.4394,-0.5994,0.2104,-0.8354,0.1904,-0.021,0.776,-0.661,-4.2,-11.237,31.649,2
0.4082,-0.5251,0.4403,-0.603,0.1542,-0.8676,0.1723,-0.075,1.048,-0.569,-4.2,-11.237,31.649,2
0.395,-0.5183,0.4457,-0.6136,-0.0283,-0.9272,-0.0429,-0.058,0.507,-0.457,-4.2,-11.237,31.649,2
0.3924,-0.5227,0.4399,-0.6157,0.0766,-0.9414,0.0024,0.237,-0.472,-0.696,-4.2,-11.237,31.649,2
0.3919,-0.528,0.4326,-0.6167,0.2202,-0.9633,0.1152,0.243,-0.543,-0.763,-4.2,-11.237,31.649,2
0.3909,-0.5301,0.4296,-0.6175,0.27,-0.9965,0.1582,0.139,-0.339,-0.73,-4.2,-11.237,31.649,2
0.3893,-0.5316,0.4278,-0.6185,0.2739,-1.0458,0.144,0.002,-0.099,-0.643,-4.2,-11.237,31.649,2
0.3873,-0.5326,0.4269,-0.6196,0.2612,-1.1118,0.1206,-0.08,0.09,-0.533,-4.2,-11.237,31.649,2
0.3782,-0.5349,0.4287,-0.622,0.3159,-1.2377,0.1293,-0.249,0.203,-0.098,-5.85,-12.137,-31.487,2
0.3682,-0.5311,0.4452,-0.6196,0.2182,-1.1723,0.0234,-0.253,-0.023,-0.064,-5.85,-12.137,-31.487,2
0.3678,-0.532,0.4453,-0.619,0.2045,-1.0478,0.0766,-0.188,-0.136,-0.133,-5.85,-12.137,-31.487,2
0.3678,-0.5329,0.4451,-0.6183,0.1699,-0.9335,0.1191,-0.143,-0.217,-0.119,-5.85,-12.137,-31.487,2
0.3704,-0.5359,0.445,-0.6143,0.0913,-0.7695,0.0502,-0.098,-0.466,0.268,-5.85,-12.137,-31.487,2
0.4291,-0.5604,0.4298,-0.5629,0.4536,-1.144,-0.0361,0.527,-2.357,1.223,-4.2,-15.737,-28.037,2
0.5304,-0.5175,0.4512,-0.497,0.1533,-0.7929,-0.0898,0.651,-0.007,1.482,-0.9,-21.887,-31.637,2
0.5396,-0.5071,0.4567,-0.4929,0.1206,-0.8144,-0.0717,0.555,0.246,1.463,-0.9,-21.887,-31.637,2
0.5462,-0.4966,0.4641,-0.4894,0.1054,-0.854,-0.0532,0.325,0.521,1.401,-0.9,-21.887,-31.637,2
0.5511,-0.4648,0.5008,-0.4787,0.0561,-1.2036,-0.0673,-0.173,1.048,1.148,-0.9,-21.887,-31.637,2
0.5479,-0.4568,0.5111,-0.4792,-0.0224,-1.2294,-0.0034,-0.189,1.2,0.546,-0.9,-21.887,-31.637,2
0.5448,-0.4542,0.5152,-0.4809,-0.0126,-1.2285,0.0209,-0.235,1.21,0.176,-0.9,-21.887,-31.637,2
0.4531,-0.5028,0.4876,-0.5513,0.1713,-0.8271,0.103,-0.063,1.08,-1.491,-5.85,-26.237,-22.787,2
0.4405,-0.5052,0.484,-0.5623,0.0703,-0.7426,-0.0385,0.034,0.763,-1.558,-5.85,-26.237,-22.787,2
0.4331,-0.5107,0.4748,-0.571,0.1298,-0.6621,0.0151,0.421,-0.102,-1.579,-5.85,-26.237,-22.787,2
0.4275,-0.5146,0.4655,-0.5792,0.2705,-0.7343,0.2368,0.46,0.237,-1.277,-5.85,-26.237,-22.787,2
0.4136,-0.5089,0.4646,-0.5949,0.1362,-0.8461,0.1562,0.127,1.593,-0.716,-5.85,-26.237,-22.787,2
0.4081,-0.5051,0.4662,-0.6007,0.0639,-0.8515,0.0854,0.089,1.748,-0.633,-5.85,-26.237,-22.787,2
0.3914,-0.5001,0.4575,-0.6223,-0.0161,-0.9409,-0.0112,0.563,-0.414,-1.011,-5.85,-26.237,-22.787,2
0.391,-0.5032,0.4523,-0.6238,0.0283,-0.9619,0.017,0.553,-0.625,-1.089,-5.85,-26.237,-22.787,2
0.39,-0.5108,0.4414,-0.6261,0.1552,-0.9775,0.083,0.419,-0.797,-1.145,-5.85,-26.237,-22.787,2
0.3827,-0.5221,0.428,-0.6305,0.3056,-1.1855,0.1499,-0.133,0.311,-0.56,-16.8,-29.387,-19.487,2
0.3764,-0.5212,0.4292,-0.6343,0.2285,-1.2363,0.0942,-0.236,0.631,-0.431,-16.8,-29.387,-19.487,2
0.3732,-0.5207,0.43,-0.636,0.1879,-1.2241,0.0844,-0.252,0.61,-0.413,-16.8,-29.387,-19.487,2
0.3703,-0.5204,0.4307,-0.6375,0.1577,-1.2041,0.1098,-0.254,0.51,-0.41,-16.8,-29.387,-19.487,2
0.3634,-0.5218,0.4319,-0.6395,0.0834,-1.2749,0.1215,-0.302,0.074,-0.281,-16.8,-29.387,-19.487,2
0.3626,-0.5234,0.4323,-0.6383,0.0649,-1.4252,0.0351,-0.372,-0.241,-0.106,-16.8,-29.387,-19.487,2
0.3715,-0.5435,0.4228,-0.6226,0.3427,-0.9858,0.1059,0.199,-1.671,-0.228,-16.8,-29.387,-19.487,2
0.3754,-0.5478,0.4188,-0.6192,0.3603,-0.8779,0.1635,0.286,-1.619,-0.057,-16.8,-29.387,-19.487,2
0.3838,-0.5535,0.4138,-0.6123,0.2963,-0.7724,0.1088,0.253,-1.224,0.395,-23.85,31.649,-15.137,2
0.4006,-0.5594,0.4124,-0.5968,0.29,-0.9282,-0.2377,0.12,-1.534,1.117,-23.85,31.649,-15.137,2
0.4674,-0.5469,0.4382,-0.5387,0.3496,-0.7885,0.1425,-0.364,1.209,1.828,-23.85,31.649,-15.137,2
0.4696,-0.5347,0.4537,-0.5362,0.1777,-0.7338,0.0869,-0.216,1.131,1.608,-23.85,31.649,-15.137,2
0.4737,-0.5252,0.4638,-0.5333,0.0639,-0.7075,0.06,0.064,0.468,1.299,-23.85,31.649,-15.137,2
0.529,-0.5077,0.4637,-0.4973,0.225,-0.8427,-0.0537,0.494,-0.46,1.382,-21.75,-27.287,-14.537,2
0.5338,-0.5039,0.4654,-0.4944,0.2197,-0.853,-0.0424,0.458,-0.181,1.365,-21.75,-27.287,-14.537,2
0.5403,-0.4948,0.4718,-0.4903,0.1884,-0.8715,-0.0229,0.269,0.445,1.313,-21.75,-27.287,-14.537,2
0.542,-0.4898,0.4765,-0.4889,0.1586,-0.8837,-0.0307,0.104,0.723,1.304,-21.75,-27.287,-14.537,2
0.5359,-0.4571,0.5186,-0.4846,-0.122,-1.3056,-0.0756,-0.251,1.07,0.723,-21.75,-27.287,-14.537,2
0.5328,-0.4541,0.5238,-0.4851,-0.1459,-1.2602,-0.0292,-0.215,0.456,0.033,-12.0,-17.087,-20.537,2
0.4762,-0.5114,0.4795,-0.5306,0.3901,-0.9819,0.206,-0.221,0.789,-1.202,-16.05,-14.387,-17.237,2
0.4525,-0.5133,0.4792,-0.5495,0.1914,-0.8857,0.0156,-0.245,1.497,-1.621,-16.05,-14.387,-17.237,2
0.4449,-0.5139,0.478,-0.5561,0.123,-0.8315,-0.0395,-0.062,1.281,-1.666,-16.05,-14.387,-17.237,2
0.4387,-0.5149,0.4754,-0.5624,0.0991,-0.7944,-0.0341,0.175,0.921,-1.669,-16.05,-14.387,-17.237,2
0.4225,-0.5208,0.4593,-0.5823,0.1923,-0.7211,0.0712,0.368,0.314,-1.393,-16.05,-14.387,-17.237,2
0.3854,-0.5122,0.4473,-0.6236,-0.0029,-0.9321,-0.0097,0.209,0.703,-0.873,-26.25,-16.187,-16.337,2
0.3821,-0.5121,0.4456,-0.6268,0.0117,-0.9487,-0.0102,0.204,0.524,-0.976,-26.25,-16.187,-16.337,2
0.3789,-0.5128,0.4436,-0.6296,0.0537,-0.9794,-0.02,0.172,0.339,-1.017,-26.25,-16.187,-16.337,2
0.3761,-0.5141,0.4412,-0.632,0.0795,-1.0087,-0.0024,0.148,0.159,-1.019,-26.25,-16.187,-16.337,2
0.371,-0.5174,0.436,-0.6359,0.1298,-1.0312,0.0693,0.136,0.004,-0.988,-26.25,-16.187,-16.337,2
0.366,-0.5205,0.4318,-0.6391,0.1933,-1.124,0.1049,-0.014,0.033,-0.804,-26.25,-16.187,-16.337,2
0.3562,-0.5239,0.4311,-0.6423,0.1977,-1.2558,0.0952,-0.388,0.29,-0.388,-26.25,-16.187,-16.337,2
0.3506,-0.5254,0.4323,-0.6434,0.226,-1.1914,0.1181,-0.357,0.229,-0.423,-26.25,-16.187,-16.337,2
0.3481,-0.5262,0.4327,-0.6439,0.225,-1.1826,0.1499,-0.334,0.199,-0.393,-26.25,-16.187,-16.337,2
0.3443,-0.5285,0.436,-0.6418,0.1044,-1.457,-0.0117,-0.44,-0.24,0.156,-26.25,-16.187,-16.337,2
0.3787,-0.5535,0.4224,-0.6096,0.373,-0.999,-0.1557,0.274,-1.3,0.955,-27.0,-11.537,-15.287,2
0.3998,-0.5585,0.4189,-0.5938,0.4545,-1.0146,-0.1796,0.363,-1.556,1.044,-27.0,-11.537,-15.287,2
0.4196,-0.5618,0.4176,-0.5777,0.4941,-1.0058,0.0283,0.202,-1.14,1.128,-27.0,-11.537,-15.287,2
0.4245,-0.5613,0.4186,-0.5738,0.4941,-0.9521,0.1123,0.122,-0.733,1.156,-27.0,-11.537,-15.287,2
0.4284,-0.5596,0.4209,-0.5709,0.4707,-0.893,0.1323,0.015,-0.292,1.219,-27.0,-11.537,-15.287,2
0.4315,-0.5569,0.4245,-0.5686,0.4311,-0.8291,0.1342,-0.072,0.094,1.285,-27.0,-11.537,-15.287,2
0.4364,-0.5497,0.4341,-0.5646,0.3134,-0.7197,0.0908,-0.134,0.483,1.341,-27.0,-11.537,-15.287,2
0.4443,-0.5388,0.4459,-0.5596,0.1796,-0.6508,0.0102,0.124,0.156,1.157,-11.4,-7.187,-20.237,2
0.5035,-0.5056,0.4631,-0.5255,0.2319,-0.956,-0.0454,0.216,0.339,1.552,-11.4,-7.187,-20.237,2
0.5037,-0.462,0.5096,-0.5224,-0.0107,-1.27,-0.0224,-0.18,1.676,0.942,12.449,-7.937,32.549,2
0.4927,-0.4508,0.5238,-0.5286,-0.1191,-1.3007,-0.0283,-0.189,0.377,-0.348,12.449,-7.937,32.549,2
0.4888,-0.4617,0.5211,-0.5255,0.0317,-1.4643,0.1831,-0.547,-0.194,-0.693,12.449,-7.937,32.549,2
0.4726,-0.4797,0.5097,-0.5353,0.2451,-0.8979,0.038,-0.108,-0.221,-1.426,12.449,-7.937,32.549,2
0.4706,-0.4912,0.496,-0.5394,0.4155,-0.8491,0.1557,0.276,-0.858,-0.633,12.449,-7.937,32.549,2
0.4723,-0.4942,0.4924,-0.5386,0.4228,-0.9458,0.1733,0.146,-0.94,-0.271,12.449,-7.937,32.549,2
0.478,-0.4969,0.4897,-0.5335,0.5126,-1.1054,0.0708,0.16,0.207,0.086,13.499,-12.437,-27.137,2
0.4763,-0.4948,0.4909,-0.5359,0.4926,-1.0244,0.0957,0.14,0.76,-0.079,13.499,-12.437,-27.137,2
0.3942,-0.5012,0.4699,-0.6103,0.1635,-0.8203,0.1508,0.176,0.739,-0.914,13.499,-12.437,-27.137,2
0.39,-0.5002,0.4691,-0.6144,0.121,-0.8198,0.0693,0.135,0.902,-0.841,13.499,-12.437,-27.137,2
0.3863,-0.4993,0.4682,-0.6182,0.0859,-0.853,0.0058,0.181,0.794,-0.782,6.899,-15.137,-22.037,2
0.3808,-0.4987,0.4648,-0.6245,0.0913,-0.894,0.0122,0.292,0.398,-0.755,6.899,-15.137,-22.037,2
0.3788,-0.4989,0.4625,-0.6273,0.125,-0.9492,0.0395,0.362,0.278,-0.8,6.899,-15.137,-22.037,2
0.3769,-0.4994,0.4598,-0.6301,0.1376,-0.9936,0.0581,0.384,0.203,-0.849,6.899,-15.137,-22.037,2
0.3747,-0.5001,0.457,-0.6329,0.1572,-1.0141,0.0781,0.358,0.181,-0.914,6.899,-15.137,-22.037,2
0.3673,-0.5025,0.4502,-0.6401,0.187,-1.2011,0.0678,0.12,0.181,-0.771,6.899,-15.137,-22.037,2
0.3595,-0.5048,0.4463,-0.6454,0.2812,-1.3242,0.0961,-0.045,0.315,-0.605,6.899,-15.137,-22.037,2
0.3415,-0.503,0.4486,-0.6549,0.1621,-1.3593,0.0742,-0.348,0.396,-0.184,6.899,-15.137,-22.037,2
0.3381,-0.5052,0.4524,-0.6523,0.2036,-1.2514,0.0043,-0.398,-0.162,-0.109,2.699,-18.887,-18.587,2
0.3373,-0.5072,0.4522,-0.6513,0.267,-1.1264,0.0502,-0.282,-0.311,-0.246,2.699,-18.887,-18.587,2
0.337,-0.5114,0.4503,-0.6496,0.2709,-0.9189,0.1562,-0.109,-0.449,-0.271,2.699,-18.887,-18.587,2
0.3414,-0.5161,0.4491,-0.6443,0.125,-0.8823,0.0151,-0.094,-0.726,0.352,2.699,-18.887,-18.587,2
0.3576,-0.5248,0.448,-0.6292,0.2158,-0.9819,-0.1894,0.129,-1.797,0.818,2.699,-18.887,-18.587,2
0.3898,-0.5399,0.4394,-0.6028,0.455,-1.0083,-0.0283,0.334,-1.986,1.071,2.699,-18.887,-18.587,2
0.3975,-0.5418,0.4387,-0.5965,0.4794,-1.0205,0.0454,0.223,-1.717,1.215,2.699,-18.887,-18.587,2
0.4104,-0.5422,0.4413,-0.5854,0.4809,-0.978,0.1567,-0.013,-0.885,1.419,2.699,-18.887,-18.587,2
0.4188,-0.5377,0.4485,-0.578,0.3955,-0.8691,0.1186,-0.189,-0.064,1.516,2.699,-18.887,-18.587,2
0.426,-0.5312,0.4573,-0.5719,0.2446,-0.7929,0.0566,-0.084,0.094,1.47,4.499,-30.287,-20.087,2
0.43,-0.5281,0.4609,-0.5689,0.1821,-0.7744,0.0419,0.015,-0.029,1.423,4.499,-30.287,-20.087,2
0.4394,-0.5235,0.4653,-0.5623,0.124,-0.7495,-0.0151,0.191,-0.447,1.269,4.499,-30.287,-20.087,2
0.4579,-0.5208,0.4644,-0.5506,0.1655,-0.7099,-0.0268,0.497,-1.148,1.056,4.499,-30.287,-20.087,2
0.4648,-0.5206,0.4628,-0.5465,0.1953,-0.7065,-0.0244,0.567,-1.235,1.028,4.499,-30.287,-20.087,2
0.4786,-0.5192,0.4602,-0.5379,0.2338,-0.7207,-0.0214,0.521,-1.109,1.168,4.499,-30.287,-20.087,2
0.4852,-0.5175,0.46,-0.5338,0.2529,-0.7387,-0.0258,0.495,-0.905,1.291,4.499,-30.287,-20.087,2
0.5107,-0.4977,0.4729,-0.5174,0.2036,-0.9018,-0.0493,0.199,0.344,1.699,4.499,-30.287,-20.087,2
0.5157,-0.4822,0.489,-0.512,0.143,-0.9609,-0.0688,-0.069,0.949,1.332,4.499,-30.287,-20.087,2
0.5157,-0.4773,0.4948,-0.5111,0.1503,-1.0292,-0.0551,-0.127,1.053,1.227,4.499,-30.287,-20.087,2
0.5147,-0.4667,0.5071,-0.5098,0.0859,-1.1982,-0.0551,-0.213,1.273,1.143,3.299,25.199,-19.037,2
0.5067,-0.4497,0.5278,-0.5122,-0.1376,-1.3115,-0.0322,-0.222,0.967,0.227,3.299,25.199,-19.037,2
0.4723,-0.4837,0.5071,-0.5344,0.1962,-1.0976,0.1376,-0.057,-0.085,-0.637,3.299,25.199,-19.037,2
0.4709,-0.4859,0.5059,-0.5348,0.1938,-1.1289,0.0888,-0.185,-0.164,-0.551,-4.65,23.249,-15.437,2
0.46,-0.4934,0.497,-0.5456,0.4189,-1.0087,0.1938,0.174,0.51,-0.864,-4.65,23.249,-15.437,2
0.455,-0.494,0.4965,-0.5498,0.3325,-0.976,0.1801,-0.136,0.816,-0.992,-4.65,23.249,-15.437,2
0.4419,-0.4953,0.496,-0.5596,0.2236,-0.9287,0.1171,-0.203,1.167,-1.313,-4.65,23.249,-15.437,2
0.4349,-0.4951,0.4957,-0.5655,0.1748,-0.8549,0.0449,-0.055,1.311,-1.369,-4.65,23.249,-15.437,2
0.4286,-0.4953,0.4942,-0.5715,0.1235,-0.8002,-0.0415,0.133,1.117,-1.452,-4.65,23.249,-15.437,2
0.3802,-0.4995,0.4703,-0.6201,0.1318,-0.791,0.0327,-0.029,1.636,-0.88,-13.05,19.949,-11.237,2
0.374,-0.4963,0.4712,-0.6258,0.0966,-0.8227,0.0268,0.035,1.687,-0.836,-13.05,19.949,-11.237,2
0.3679,-0.4929,0.472,-0.6314,0.0385,-0.8588,0.0302,0.087,1.665,-0.796,-13.05,19.949,-11.237,2
0.3495,-0.4839,0.4722,-0.6485,-0.0488,-0.9956,0.038,0.159,0.775,-0.817,-13.05,19.949,-11.237,2
0.3464,-0.4835,0.4711,-0.6513,-0.0209,-1.0209,0.0507,0.167,0.535,-0.805,-13.05,19.949,-11.237,2
0.3371,-0.493,0.4595,-0.6573,0.2299,-1.2729,0.1113,-0.021,-0.245,-0.339,-13.05,19.949,-11.237,2
0.3361,-0.4941,0.4588,-0.6575,0.2641,-1.2504,0.145,-0.071,-0.094,-0.323,-13.05,19.949,-11.237,2
0.3306,-0.4931,0.4605,-0.6598,0.2558,-1.2265,0.1909,-0.203,0.55,-0.12,-19.2,14.699,-8.687,2
0.3284,-0.4911,0.4644,-0.6597,0.0844,-1.4985,0.0292,-0.359,0.214,0.271,-19.2,14.699,-8.687,2
0.33,-0.4925,0.4665,-0.6563,0.0288,-1.312,0.0107,-0.223,-0.415,0.174,-19.2,14.699,-8.687,2
0.443,-0.511,0.4734,-0.5641,0.1459,-0.7216,-0.019,0.023,-0.412,1.147,-30.6,14.249,-1.187,2
0.4477,-0.51,0.4746,-0.5604,0.1367,-0.7202,-0.0346,0.097,-0.625,1.111,-30.6,14.249,-1.187,2
0.4643,-0.509,0.4746,-0.5477,0.1708,-0.7646,-0.0615,0.231,-1.048,1.049,-30.6,14.249,-1.187,2
0.4757,-0.5078,0.474,-0.5394,0.2153,-0.7934,-0.0615,0.302,-0.892,1.089,-30.6,14.249,-1.187,2
0.4811,-0.5064,0.4744,-0.5356,0.2402,-0.8032,-0.0463,0.28,-0.75,1.153,-30.6,14.249,-1.187,2
0.4861,-0.5046,0.4754,-0.5318,0.2509,-0.8139,-0.0444,0.218,-0.574,1.212,-30.6,14.249,-1.187,2
0.4906,-0.5022,0.4774,-0.5283,0.2583,-0.8413,-0.0375,0.146,-0.356,1.285,-30.6,14.249,-1.187,2
0.4988,-0.4674,0.5174,-0.5147,0.039,-1.1738,-0.0488,-0.199,1.081,0.814,29.686,19.649,2.563,2
0.4976,-0.4634,0.5219,-0.5149,0.0004,-1.2373,-0.062,-0.153,1.044,0.721,29.686,19.649,2.563,2
0.4924,-0.4568,0.5293,-0.5182,0.041,-1.3417,0.0322,-0.055,0.004,-0.367,29.686,19.649,2.563,2
0.4732,-0.4757,0.5202,-0.5282,0.1367,-1.0268,0.1518,-0.1,0.155,-1.629,29.686,19.649,2.563,2
0.4618,-0.4846,0.5087,-0.5411,0.2612,-0.7895,0.1201,0.407,-0.005,-1.405,26.986,24.449,4.513,2
0.4602,-0.4868,0.5044,-0.5446,0.2402,-0.7827,0.1342,0.491,-0.135,-1.171,26.986,24.449,4.513,2
0.46,-0.4908,0.4973,-0.5478,0.2241,-0.9262,0.1,0.239,-0.467,-0.557,26.986,24.449,4.513,2
0.4604,-0.4936,0.4937,-0.5482,0.3476,-1.0708,-0.0209,0.151,-0.234,-0.239,26.986,24.449,4.513,2
0.46,-0.495,0.4867,-0.5534,0.4355,-1.0185,0.1005,0.28,0.1,-0.547,26.986,24.449,4.513,2
0.4455,-0.4966,0.4845,-0.5656,0.2885,-0.9453,0.1274,-0.168,1.019,-1.22,26.986,24.449,4.513,2
0.4243,-0.4971,0.4827,-0.5828,0.1357,-0.8598,0.0014,-0.012,1.127,-1.484,26.986,24.449,4.513,2
0.4183,-0.4977,0.4806,-0.5884,0.0771,-0.8554,0.0063,0.139,0.908,-1.492,26.986,24.449,4.513,2
0.4135,-0.4986,0.4776,-0.5934,0.0747,-0.8374,0.0024,0.286,0.627,-1.427,26.986,24.449,4.513,2
0.3983,-0.5082,0.4568,-0.6117,0.2875,-0.7705,0.1821,0.387,0.121,-1.229,17.986,22.649,6.164,2
0.3544,-0.5053,0.4419,-0.6508,0.2509,-1.1767,0.1293,-0.139,0.029,-0.199,17.986,22.649,6.164,2
0.3532,-0.5055,0.4426,-0.6509,0.2622,-1.2153,0.1381,-0.225,0.137,-0.112,8.536,19.349,4.813,2
0.3517,-0.5054,0.4437,-0.651,0.2529,-1.2241,0.1538,-0.275,0.256,-0.084,8.536,19.349,4.813,2
0.348,-0.5043,0.4463,-0.6521,0.2309,-1.1669,0.164,-0.287,0.428,-0.112,8.536,19.349,4.813,2
0.346,-0.5036,0.4478,-0.6527,0.2221,-1.1513,0.184,-0.29,0.459,-0.087,8.536,19.349,4.813,2
0.3443,-0.5028,0.4493,-0.6531,0.1845,-1.2031,0.1518,-0.29,0.406,-0.014,8.536,19.349,4.813,2
0.3557,-0.5156,0.4491,-0.637,0.3129,-0.9863,0.0947,0.174,-1.424,-0.061,8.536,19.349,4.813,2
0.3593,-0.5194,0.4459,-0.6341,0.3339,-0.9038,0.1723,0.215,-1.392,-0.007,8.536,19.349,4.813,2
0.3812,-0.5302,0.4396,-0.6165,0.2519,-0.8969,-0.104,0.13,-1.354,0.869,8.536,19.349,4.813,2
0.388,-0.5326,0.4388,-0.6108,0.2822,-0.9418,-0.1718,0.215,-1.574,0.999,8.536,19.349,4.813,2
0.3956,-0.5351,0.4376,-0.6045,0.3247,-0.9775,-0.2133,0.31,-1.756,1.114,4.186,26.999,11.113,2
0.412,-0.5393,0.4351,-0.5915,0.437,-0.9965,-0.1562,0.4,-1.778,1.322,4.186,26.999,11.113,2
0.4282,-0.5401,0.435,-0.5792,0.5083,-1.0488,-0.0166,0.278,-1.328,1.538,4.186,26.999,11.113,2
0.4596,-0.5093,0.4766,-0.5496,0.0795,-0.8525,0.0161,-0.085,0.298,1.222,4.186,26.999,11.113,2
0.4716,-0.5046,0.4793,-0.5413,0.0781,-0.8364,-0.039,0.354,-0.792,0.856,4.186,26.999,11.113,2
0.4946,-0.504,0.4725,-0.5271,0.2373,-0.8066,-0.0073,0.441,-1.022,0.881,16.186,-20.387,6.914,2
0.5211,-0.4794,0.4901,-0.5081,0.1679,-0.874,-0.0122,-0.004,0.683,0.917,16.186,-20.387,6.914,2
0.5198,-0.4631,0.5079,-0.5072,0.0517,-1.123,-0.0625,-0.05,1.0,0.858,16.186,-20.387,6.914,2
0.519,-0.4591,0.5121,-0.5074,0.0092,-1.1484,-0.0522,-0.064,0.974,0.73,16.186,-20.387,6.914,2
0.518,-0.4557,0.5157,-0.5078,-0.0063,-1.1577,-0.0385,-0.073,0.887,0.541,16.186,-20.387,6.914,2
0.5101,-0.4518,0.5228,-0.512,0.039,-1.1518,0.0747,-0.22,0.478,-0.369,16.186,-20.387,6.914,2
0.488,-0.4537,0.5323,-0.522,-0.1245,-1.2709,0.0444,-0.431,0.658,-0.823,28.036,-6.437,-2.837,2
0.484,-0.4567,0.5316,-0.5239,-0.0766,-1.1811,0.0629,-0.39,0.216,-1.025,28.036,-6.437,-2.837,2
0.4802,-0.4602,0.5298,-0.526,0.0249,-1.0629,0.125,-0.336,0.056,-1.163,28.036,-6.437,-2.837,2
0.47,-0.4704,0.5219,-0.5341,0.1479,-0.894,0.1445,-0.013,-0.06,-1.18,28.036,-6.437,-2.837,2
0.4677,-0.4736,0.5188,-0.5363,0.1469,-0.8696,0.1347,0.047,-0.186,-1.118,28.036,-6.437,-2.837,2
0.4651,-0.4801,0.5122,-0.5391,0.1684,-0.9428,0.0634,0.033,-0.479,-0.819,28.036,-6.437,-2.837,2
0.4648,-0.4834,0.5091,-0.5393,0.207,-1.0024,-0.0063,0.036,-0.592,-0.64,28.036,-6.437,-2.837,2
0.4653,-0.4861,0.506,-0.5393,0.2666,-1.0463,-0.039,0.154,-0.66,-0.462,28.036,-6.437,-2.837,2
0.4664,-0.4882,0.5026,-0.5397,0.3217,-1.0434,-0.0458,0.343,-0.642,-0.366,28.036,-6.437,-2.837,2
0.4584,-0.4876,0.4977,-0.5515,0.3466,-1.0546,0.1108,-0.045,1.142,-0.686,19.186,-7.487,3.013,2
0.4524,-0.4862,0.499,-0.5566,0.2822,-1.0444,0.102,-0.131,1.422,-0.798,19.186,-7.487,3.013,2
0.4455,-0.4845,0.5008,-0.5619,0.2104,-1.0136,0.0805,-0.202,1.604,-0.896,19.186,-7.487,3.013,2
0.4384,-0.4828,0.5026,-0.5673,0.1215,-0.9926,0.0522,-0.211,1.63,-0.971,19.186,-7.487,3.013,2
0.4316,-0.4814,0.5038,-0.5726,0.0756,-0.9599,0.0317,-0.154,1.518,-1.025,19.186,-7.487,3.013,2
0.4255,-0.4803,0.5043,-0.5777,0.0385,-0.9428,0.0039,-0.022,1.302,-1.04,19.186,-7.487,3.013,2
0.4131,-0.4796,0.5005,-0.5905,0.041,-0.8964,0.0195,0.297,0.512,-0.964,19.186,-7.487,3.013,2
0.4083,-0.481,0.4953,-0.5971,0.104,-0.9155,0.0644,0.365,0.221,-0.921,19.186,-7.487,3.013,2
0.3963,-0.4798,0.4882,-0.6118,0.1264,-0.9482,0.1005,0.239,0.82,-0.798,19.186,-7.487,3.013,2
0.3763,-0.4749,0.4843,-0.6309,-0.0004,-0.9179,0.0371,0.162,0.255,-0.72,10.636,-11.537,-2.237,2
0.3747,-0.4758,0.4825,-0.6326,0.0214,-0.9272,0.0498,0.181,0.069,-0.684,10.636,-11.537,-2.237,2
0.3731,-0.4787,0.4783,-0.6346,0.0668,-0.9389,0.0585,0.195,-0.266,-0.574,10.636,-11.537,-2.237,2
0.3731,-0.4806,0.4758,-0.635,0.1074,-0.936,0.0781,0.217,-0.392,-0.506,10.636,-11.537,-2.237,2
0.3967,-0.4909,0.4732,-0.6144,0.2592,-1.1157,0.1157,0.003,-0.465,0.344,8.386,-9.587,-3.287,2
0.401,-0.4921,0.4729,-0.6109,0.1918,-1.0361,0.1411,0.023,-0.487,0.331,8.386,-9.587,-3.287,2
0.4847,-0.5074,0.4589,-0.5448,0.2983,-0.9707,0.0332,-0.093,-0.29,0.582,18.286,1.063,-0.437,2
0.4865,-0.5075,0.4593,-0.5428,0.3027,-0.9716,0.0307,-0.043,-0.346,0.518,18.286,1.063,-0.437,2
0.4883,-0.5077,0.4595,-0.5408,0.3022,-0.9477,0.038,-0.032,-0.365,0.475,18.286,1.063,-0.437,2
0.4994,-0.5111,0.4559,-0.5304,0.3398,-0.9321,0.0263,0.07,-0.387,0.287,18.286,1.063,-0.437,2
0.5022,-0.5117,0.4552,-0.5278,0.3188,-0.8842,-0.0078,0.036,-0.154,0.216,18.286,1.063,-0.437,2
0.5029,-0.5108,0.4574,-0.526,0.2783,-0.9575,-0.0673,-0.05,0.141,0.274,28.336,9.914,-6.587,2
0.5029,-0.51,0.459,-0.5255,0.2563,-1.0327,-0.0874,-0.076,0.211,0.361,28.336,9.914,-6.587,2
0.5031,-0.5086,0.461,-0.5248,0.246,-1.0878,-0.0942,-0.111,0.261,0.43,28.336,9.914,-6.587,2
0.5032,-0.5072,0.4631,-0.5243,0.2011,-1.0952,-0.0878,-0.136,0.308,0.417,28.336,9.914,-6.587,2
0.5018,-0.5055,0.4664,-0.5244,0.186,-1.0927,-0.0527,-0.126,0.33,0.111,28.336,9.914,-6.587,2
0.5007,-0.5051,0.4675,-0.5248,0.2001,-1.0917,-0.0185,-0.163,0.314,-0.004,28.336,9.914,-6.587,2
0.4942,-0.5063,0.47,-0.5275,0.1899,-0.9931,0.1054,-0.331,0.386,-0.332,28.336,9.914,-6.587,2
0.4795,-0.513,0.4712,-0.5335,0.1601,-0.9448,0.0537,-0.091,0.029,-0.329,28.336,9.914,-6.587,2
0.4769,-0.5148,0.4695,-0.5357,0.142,-0.9863,0.0102,0.019,0.069,-0.25,29.686,9.013,-3.737,2
0.4759,-0.515,0.4691,-0.5368,0.1342,-0.9848,0.0043,0.037,0.156,-0.278,29.686,9.013,-3.737,2
0.4728,-0.5151,0.4688,-0.5397,0.123,-0.9819,-0.0083,-0.027,0.316,-0.341,29.686,9.013,-3.737,2
0.4662,-0.5155,0.4697,-0.5442,0.142,-1.0156,-0.0029,-0.139,0.42,-0.377,29.686,9.013,-3.737,2
0.4613,-0.5155,0.4704,-0.5478,0.1552,-1.0068,0.0361,-0.138,0.482,-0.409,29.686,9.013,-3.737,2
0.4553,-0.515,0.4719,-0.5519,0.1323,-1.0288,0.0458,-0.207,0.651,-0.43,29.686,9.013,-3.737,2
0.4487,-0.514,0.4738,-0.5565,0.1098,-1.04,0.0429,-0.176,0.722,-0.476,29.686,9.013,-3.737,2
0.4454,-0.5135,0.4746,-0.559,0.101,-1.0307,0.0454,-0.168,0.711,-0.491,29.686,9.013,-3.737,2
0.4424,-0.5132,0.4751,-0.5612,0.0942,-1.0415,0.0512,-0.131,0.612,-0.496,29.686,9.013,-3.737,2
0.4354,-0.5134,0.4747,-0.5668,0.1162,-1.0327,0.0917,-0.06,0.322,-0.455,29.686,9.013,-3.737,2
0.4337,-0.5136,0.4744,-0.5683,0.122,-1.0415,0.0878,-0.04,0.27,-0.423,29.686,9.013,-3.737,2
0.7453,-0.5927,0.2931,-0.0846,-0.3359,-0.9443,0.1059,0.011,0.038,-0.004,14.099,-10.037,14.249,3
0.7453,-0.5926,0.2934,-0.0848,-0.3505,-0.9414,0.1044,0.018,0.073,0.003,14.099,-10.037,14.249,3
0.7452,-0.5925,0.2937,-0.085,-0.3666,-0.9345,0.0971,0.026,0.08,0.011,14.099,-10.037,14.249,3
0.7451,-0.5922,0.2943,-0.0852,-0.374,-0.9262,0.0952,0.022,0.04,-0.001,14.999,-9.887,15.149,3
0.7452,-0.5925,0.2937,-0.0843,-0.3662,-0.9633,0.104,-0.021,-0.096,0.005,14.999,-9.887,15.149,3
0.7453,-0.5926,0.2935,-0.0841,-0.3422,-0.9677,0.1035,-0.017,-0.061,0.0,14.999,-9.887,15.149,3
0.7452,-0.5927,0.2935,-0.0841,-0.3525,-0.9677,0.1132,-0.007,-0.012,-0.001,14.999,-9.887,15.149,3
0.7452,-0.5927,0.2935,-0.0841,-0.352,-0.9575,0.1191,0.001,0.015,-0.01,14.999,-9.887,15.149,3
0.7452,-0.5927,0.2935,-0.0842,-0.3613,-0.9526,0.1196,0.003,0.01,-0.012,14.999,-9.887,15.149,3
0.7452,-0.5927,0.2936,-0.0843,-0.3681,-0.9555,0.123,0.003,0.019,-0.006,14.999,-9.887,15.149,3
0.7451,-0.5927,0.2937,-0.0843,-0.374,-0.9458,0.1132,0.0,0.019,0.0,14.999,-9.887,15.149,3
0.7451,-0.5927,0.2938,-0.0843,-0.3784,-0.9418,0.1108,0.0,0.001,0.004,14.999,-9.887,15.149,3
0.7452,-0.5926,0.2937,-0.0841,-0.3701,-0.935,0.1074,0.01,-0.039,0.003,14.999,-9.887,15.149,3
0.7453,-0.5927,0.2934,-0.0839,-0.3637,-0.9335,0.0971,0.011,-0.078,-0.002,14.999,-9.887,15.149,3
0.7457,-0.5932,0.2917,-0.0827,-0.3413,-0.9389,0.1054,-0.027,-0.113,-0.023,14.999,-9.887,15.149,3
0.7457,-0.5934,0.2913,-0.0824,-0.3417,-0.9418,0.0996,-0.037,-0.103,-0.018,14.999,-9.887,15.149,3
0.7456,-0.5937,0.2909,-0.0825,-0.3393,-0.9404,0.1118,0.01,0.054,-0.018,14.249,-9.137,14.849,3
0.7455,-0.5937,0.2912,-0.0828,-0.3437,-0.9482,0.1079,0.021,0.077,-0.013,14.249,-9.137,14.849,3
0.7453,-0.5935,0.2917,-0.0834,-0.3579,-0.9492,0.0966,0.029,0.068,-0.012,14.249,-9.137,14.849,3
0.7453,-0.5935,0.2917,-0.0836,-0.3652,-0.9458,0.1147,0.001,-0.024,-0.025,14.249,-9.137,14.849,3
0.745,-0.5938,0.2918,-0.084,-0.3813,-0.9418,0.0942,0.005,0.027,-0.008,14.249,-9.137,14.849,3
0.7455,-0.5941,0.2901,-0.0835,-0.311,-0.9458,0.1289,0.025,0.099,-0.022,13.949,-10.187,14.849,3
0.7451,-0.5929,0.2927,-0.0857,-0.393,-0.9228,0.0844,-0.005,-0.089,-0.027,13.949,-10.187,14.849,3
0.7452,-0.5931,0.2923,-0.0854,-0.3735,-0.9326,0.0683,-0.006,-0.119,-0.039,13.949,-10.187,14.849,3
0.7455,-0.5934,0.2911,-0.0851,-0.3461,-0.9394,0.0844,0.023,-0.122,-0.061,13.949,-10.187,14.849,3
0.7456,-0.5931,0.291,-0.0864,-0.3403,-0.9213,0.1313,0.061,0.158,-0.08,13.949,-10.187,14.849,3
0.7451,-0.5924,0.293,-0.089,-0.3911,-0.9184,0.1176,0.079,0.379,-0.072,13.949,-10.187,14.849,3
0.7447,-0.592,0.2943,-0.0905,-0.4165,-0.9296,0.1049,0.099,0.419,-0.076,13.949,-9.437,14.399,3
0.7443,-0.5912,0.2953,-0.0956,-0.4677,-0.9238,0.0864,-0.002,-0.101,-0.196,13.949,-9.437,14.399,3
0.7441,-0.5922,0.2939,-0.096,-0.4545,-0.9038,0.0747,-0.058,-0.098,-0.203,13.949,-9.437,14.399,3
0.7438,-0.5928,0.2932,-0.0962,-0.455,-0.9038,0.062,-0.082,-0.08,-0.21,13.949,-9.437,14.399,3
0.7434,-0.5935,0.2927,-0.0964,-0.4702,-0.8969,0.0444,-0.099,-0.067,-0.205,13.949,-9.437,14.399,3
0.7423,-0.5966,0.2893,-0.0959,-0.5078,-0.8876,0.0346,-0.129,-0.269,-0.229,13.949,-9.437,14.399,3
0.7422,-0.5976,0.2876,-0.0953,-0.498,-0.8784,0.0498,-0.139,-0.357,-0.246,13.949,-9.437,14.399,3
0.7422,-0.5987,0.2857,-0.0946,-0.4746,-0.8906,0.0722,-0.152,-0.419,-0.257,13.949,-9.437,14.399,3
0.7421,-0.6008,0.2818,-0.093,-0.435,-0.9091,0.0913,-0.171,-0.417,-0.235,13.949,-9.437,14.399,3
0.742,-0.602,0.28,-0.0923,-0.4179,-0.9042,0.0805,-0.197,-0.39,-0.234,13.499,-9.137,15.899,3
0.7392,-0.6104,0.27,-0.089,-0.3623,-0.8872,0.061,-0.246,-0.297,-0.265,13.499,-9.137,15.899,3
0.7384,-0.6127,0.2672,-0.0884,-0.3745,-0.9233,0.0766,-0.192,-0.249,-0.221,13.499,-9.137,15.899,3
0.7381,-0.6137,0.2658,-0.0881,-0.3627,-0.9731,0.0556,-0.167,-0.26,-0.214,13.499,-9.137,15.899,3
0.7377,-0.6149,0.2643,-0.0877,-0.3486,-0.9599,0.0292,-0.181,-0.284,-0.241,13.499,-9.137,15.899,3
0.7363,-0.6198,0.257,-0.0868,-0.206,-0.9921,0.1103,-0.256,-0.426,-0.42,13.499,-9.137,15.899,3
0.736,-0.6209,0.2546,-0.088,-0.1591,-0.9873,0.1689,-0.124,-0.188,-0.501,13.499,-9.137,15.899,3
0.7354,-0.6218,0.2534,-0.0903,-0.1289,-0.9643,0.1855,-0.099,0.128,-0.516,13.499,-9.137,15.899,3
0.7326,-0.6235,0.2538,-0.0994,-0.1113,-0.9707,0.2055,-0.036,0.562,-0.418,13.499,-9.137,15.899,3
0.7308,-0.6235,0.2563,-0.1063,-0.1679,-0.9931,0.1811,-0.008,0.709,-0.322,10.349,-8.837,18.299,3
0.7237,-0.6264,0.2586,-0.1297,-0.0644,-1.1552,0.2636,-0.036,1.052,-0.671,10.349,-8.837,18.299,3
0.7179,-0.6235,0.2701,-0.1505,-0.1577,-1.1303,0.269,0.271,1.802,-0.49,10.349,-8.837,18.299,3
0.7162,-0.6214,0.2752,-0.1585,-0.2041,-1.0952,0.2685,0.387,1.961,-0.463,10.349,-8.837,18.299,3
0.7129,-0.6153,0.2865,-0.1756,-0.2773,-0.9887,0.2294,0.533,2.167,-0.426,10.349,-8.837,18.299,3
0.7066,-0.5987,0.305,-0.2213,-0.312,-0.8159,0.1904,0.544,0.499,-0.708,10.349,-8.837,18.299,3
0.7071,-0.5973,0.3036,-0.2255,-0.2812,-0.8364,0.2143,0.543,0.349,-0.737,11.099,-8.837,19.049,3
0.7076,-0.596,0.3019,-0.2297,-0.2441,-0.871,0.2456,0.543,0.297,-0.756,11.099,-8.837,19.049,3
0.7084,-0.5928,0.2993,-0.2385,-0.2304,-0.9042,0.2783,0.547,0.47,-0.704,11.099,-8.837,19.049,3
0.7083,-0.5892,0.2989,-0.2482,-0.2451,-0.9433,0.2397,0.501,0.703,-0.666,11.099,-8.837,19.049,3
0.7075,-0.5855,0.2995,-0.2585,-0.2299,-0.9877,0.2412,0.481,0.837,-0.674,11.099,-8.837,19.049,3
0.7067,-0.5834,0.3005,-0.2641,-0.2353,-1.0087,0.2294,0.458,0.989,-0.648,11.099,-8.837,19.049,3
0.7039,-0.5763,0.3051,-0.2813,-0.3378,-1.0122,0.2304,0.495,1.067,-0.654,11.099,-8.837,19.049,3
0.7031,-0.5739,0.3062,-0.287,-0.3315,-1.0004,0.2558,0.509,1.023,-0.688,11.099,-8.837,19.049,3
0.7005,-0.5668,0.3085,-0.3044,-0.2944,-0.9477,0.2783,0.501,0.977,-0.738,11.099,-8.837,19.049,3
0.6995,-0.5648,0.3091,-0.3099,-0.2866,-0.9335,0.249,0.47,0.898,-0.741,11.099,-8.837,19.049,3
0.6978,-0.562,0.3085,-0.319,-0.2626,-0.895,0.2456,0.344,0.523,-0.731,11.099,-8.837,19.049,3
0.6964,-0.5612,0.3065,-0.3254,-0.2314,-0.9038,0.2626,0.177,0.232,-0.64,8.249,-13.037,18.599,3
0.6958,-0.5613,0.3053,-0.3277,-0.2216,-0.9174,0.248,0.099,0.109,-0.585,8.249,-13.037,18.599,3
0.6948,-0.5628,0.3018,-0.3305,-0.2158,-0.9716,0.2172,0.011,-0.202,-0.547,8.249,-13.037,18.599,3
0.6944,-0.5655,0.2966,-0.3315,-0.1748,-1.0302,0.2202,-0.03,-0.451,-0.518,8.249,-13.037,18.599,3
0.6942,-0.5671,0.2937,-0.3317,-0.1518,-1.0888,0.2216,-0.049,-0.5,-0.483,8.249,-13.037,18.599,3
0.6935,-0.5707,0.2884,-0.3318,-0.1093,-1.1928,0.2753,-0.138,-0.446,-0.427,8.249,-13.037,18.599,3
0.6927,-0.5724,0.2867,-0.3319,-0.0971,-1.2548,0.312,-0.211,-0.314,-0.39,8.249,-13.037,18.599,3
0.6915,-0.5741,0.2856,-0.3324,-0.083,-1.2895,0.3305,-0.274,-0.135,-0.364,8.249,-13.037,18.599,3
0.6859,-0.5793,0.2853,-0.3351,-0.1083,-1.29,0.2475,-0.475,0.108,-0.371,8.249,-13.037,18.599,3
0.6819,-0.5838,0.2851,-0.3357,-0.124,-1.2822,0.1689,-0.548,-0.073,-0.316,8.249,-13.037,18.599,3
0.6777,-0.5917,0.2823,-0.3329,-0.0625,-1.1928,0.1132,-0.496,-0.456,-0.186,8.249,-13.037,18.599,3
0.6759,-0.6003,0.2775,-0.3248,0.0322,-0.9306,0.1123,-0.287,-0.499,0.082,4.649,-12.137,24.299,3
0.6786,-0.5975,0.2852,-0.3177,-0.0883,-0.916,-0.0107,0.109,0.276,0.609,4.649,-12.137,24.299,3
0.681,-0.5942,0.2908,-0.3138,-0.1591,-1.0175,-0.0253,0.151,0.136,0.797,4.649,-12.137,24.299,3
0.6845,-0.591,0.296,-0.3073,-0.1669,-1.0815,-0.0273,0.139,-0.107,0.967,4.649,-12.137,24.299,3
0.6889,-0.5881,0.3,-0.2989,-0.1523,-1.0532,0.0009,0.144,-0.327,1.047,4.649,-12.137,24.299,3
0.7031,-0.5775,0.3082,-0.2774,-0.0375,-0.8764,0.1401,0.395,0.019,0.763,7.799,-15.737,20.399,3
0.7065,-0.5715,0.3131,-0.2755,-0.0737,-0.8393,0.1464,0.458,0.393,0.707,7.799,-15.737,20.399,3
0.7124,-0.5601,0.3238,-0.2717,-0.2509,-0.8803,0.0234,0.328,0.11,0.714,7.799,-15.737,20.399,3
0.7214,-0.5536,0.3243,-0.2601,-0.2001,-0.9453,0.0117,0.412,-0.638,0.58,7.799,-15.737,20.399,3
0.724,-0.5523,0.3231,-0.2573,-0.1606,-0.9667,0.0488,0.42,-0.617,0.518,7.799,-15.737,20.399,3
0.7263,-0.5509,0.3223,-0.255,-0.1376,-0.9775,0.083,0.407,-0.465,0.484,7.799,-15.737,20.399,3
0.7312,-0.5447,0.3247,-0.2512,-0.1645,-0.8925,0.0541,0.294,0.168,0.299,7.799,-15.737,20.399,3
0.7318,-0.543,0.3259,-0.2516,-0.1772,-0.875,0.0595,0.294,0.268,0.225,7.799,-15.737,20.399,3
0.7322,-0.5412,0.3273,-0.2525,-0.1933,-0.8691,0.0659,0.302,0.373,0.157,7.799,-15.737,20.399,3
0.7325,-0.5376,0.3304,-0.2551,-0.2167,-0.8847,0.062,0.322,0.484,0.091,10.049,-20.687,19.049,3
0.7325,-0.5359,0.3321,-0.2564,-0.2368,-0.9042,0.0463,0.307,0.472,0.089,10.049,-20.687,19.049,3
0.7326,-0.5344,0.3336,-0.2575,-0.2568,-0.9321,0.0371,0.286,0.394,0.089,10.049,-20.687,19.049,3
0.7355,-0.5293,0.3369,-0.2554,-0.2353,-1.0874,0.0541,0.092,-0.136,0.181,10.049,-20.687,19.049,3
0.7355,-0.5282,0.3359,-0.2589,-0.1054,-1.101,0.1674,0.006,0.22,-0.295,10.049,-20.687,19.049,3
0.7343,-0.5284,0.3364,-0.2612,-0.0659,-1.0996,0.185,-0.011,0.415,-0.369,10.049,-20.687,19.049,3
0.7303,-0.5285,0.3389,-0.2688,-0.0444,-1.1176,0.2114,-0.057,0.834,-0.61,10.049,-20.687,19.049,3
0.7275,-0.5287,0.3408,-0.2737,-0.0366,-1.1362,0.225,-0.107,1.005,-0.692,10.049,-20.687,19.049,3
0.7243,-0.5288,0.3432,-0.2791,-0.0551,-1.1831,0.249,-0.116,1.183,-0.751,10.049,-20.687,19.049,3
0.7136,-0.5269,0.3525,-0.298,-0.2055,-1.2241,0.2006,0.02,1.463,-0.785,7.949,-22.787,22.799,3
0.693,-0.5304,0.359,-0.3306,-0.0346,-0.9228,0.3432,-0.299,0.796,-1.017,7.949,-22.787,22.799,3
0.6895,-0.5319,0.3592,-0.3354,-0.0395,-0.9023,0.3393,-0.325,0.726,-0.992,7.949,-22.787,22.799,3
0.6834,-0.5356,0.3582,-0.343,-0.0883,-0.8769,0.2998,-0.334,0.339,-0.9,7.949,-22.787,22.799,3
0.6812,-0.5378,0.3566,-0.3456,-0.0913,-0.8735,0.2714,-0.299,0.078,-0.873,7.949,-22.787,22.799,3
0.6794,-0.5401,0.3543,-0.3477,-0.0864,-0.8886,0.2397,-0.234,-0.121,-0.835,7.949,-22.787,22.799,3
0.6782,-0.5423,0.3517,-0.3494,-0.0712,-0.8999,0.2177,-0.166,-0.233,-0.772,7.949,-22.787,22.799,3
0.6733,-0.549,0.3423,-0.3575,0.0014,-0.8603,0.1728,0.001,0.003,-0.762,7.949,-22.787,22.799,3
0.6664,-0.5523,0.3376,-0.3697,-0.0717,-0.8403,0.1831,-0.022,0.272,-0.731,3.749,-22.637,29.849,3
0.6646,-0.5532,0.3365,-0.3726,-0.0961,-0.8398,0.1879,-0.043,0.24,-0.719,3.749,-22.637,29.849,3
0.6587,-0.5551,0.3343,-0.3821,-0.1186,-0.8393,0.1787,-0.038,0.406,-0.726,3.749,-22.637,29.849,3
0.6508,-0.5598,0.3299,-0.3926,-0.1762,-0.851,0.1826,-0.169,0.024,-0.716,3.749,-22.637,29.849,3
0.649,-0.5616,0.3281,-0.3945,-0.1723,-0.8461,0.1826,-0.192,-0.051,-0.719,3.749,-22.637,29.849,3
0.6443,-0.5673,0.3228,-0.3984,-0.1689,-0.8779,0.1875,-0.229,-0.178,-0.665,3.749,-22.637,29.849,3
0.6394,-0.5754,0.3159,-0.4002,-0.1562,-0.9472,0.1948,-0.273,-0.333,-0.518,3.749,-22.637,29.849,3
0.6384,-0.5775,0.3143,-0.4,-0.1557,-0.957,0.2094,-0.304,-0.351,-0.483,3.749,-22.637,29.849,3
0.6374,-0.5796,0.3128,-0.3997,-0.1562,-0.9667,0.2089,-0.33,-0.365,-0.438,3.749,-22.637,29.849,3
0.6355,-0.5841,0.3102,-0.3981,-0.1367,-1.0039,0.186,-0.39,-0.429,-0.324,-4.65,-25.487,-31.487,3
0.6339,-0.5913,0.3069,-0.3926,-0.0864,-1.0981,0.1655,-0.418,-0.579,-0.029,-4.65,-25.487,-31.487,3
0.6338,-0.5936,0.306,-0.39,-0.062,-1.1201,0.1621,-0.412,-0.635,0.073,-4.65,-25.487,-31.487,3
0.634,-0.5959,0.3052,-0.3869,-0.0224,-1.1508,0.1713,-0.415,-0.674,0.18,-4.65,-25.487,-31.487,3
0.6352,-0.6005,0.3061,-0.3767,0.0781,-1.2319,0.2192,-0.354,-0.367,0.539,-4.65,-25.487,-31.487,3
0.6358,-0.6004,0.3142,-0.3693,0.0683,-1.3281,0.1938,-0.33,0.184,0.717,-4.65,-25.487,-31.487,3
0.6363,-0.5992,0.3206,-0.365,0.0048,-1.3344,0.1044,-0.265,0.149,0.749,-4.65,-25.487,-31.487,3
0.6407,-0.5976,0.3269,-0.3542,-0.0253,-1.3471,0.0073,-0.076,-0.449,0.944,-4.65,-25.487,-31.487,3
0.6433,-0.5972,0.3277,-0.3491,0.0161,-1.3266,0.0039,-0.022,-0.672,0.998,-4.65,-25.487,-31.487,3
0.6464,-0.5969,0.328,-0.3435,0.0595,-1.2915,0.0009,0.015,-0.827,1.026,-4.65,-25.487,-31.487,3
0.6497,-0.5965,0.3281,-0.3379,0.0878,-1.2368,0.0063,0.078,-0.887,1.016,-6.9,-25.937,-25.337,3
0.6817,-0.5822,0.3266,-0.2992,-0.0581,-1.1503,0.0341,0.609,-0.785,1.148,-6.9,-25.937,-25.337,3
0.6865,-0.5796,0.3261,-0.2937,-0.062,-1.1201,0.0239,0.61,-0.879,1.18,-6.9,-25.937,-25.337,3
0.6912,-0.5773,0.3254,-0.288,-0.0708,-1.059,0.0463,0.578,-0.967,1.192,-6.9,-25.937,-25.337,3
0.6957,-0.5754,0.3244,-0.282,-0.0541,-1.0078,0.0415,0.502,-1.054,1.174,-6.9,-25.937,-25.337,3
0.7001,-0.5737,0.3232,-0.2758,-0.0317,-0.9809,0.0483,0.436,-1.107,1.148,-6.9,-25.937,-25.337,3
0.7203,-0.5545,0.3296,-0.2547,0.0288,-0.7114,0.1215,0.665,0.789,0.785,-6.9,-25.937,-25.337,3
0.7223,-0.5446,0.3396,-0.2572,-0.1147,-0.6845,0.0517,0.687,1.135,0.77,-5.1,-25.187,-26.687,3
0.7232,-0.5395,0.3447,-0.2588,-0.1796,-0.6987,0.0224,0.696,1.136,0.743,-5.1,-25.187,-26.687,3
0.7254,-0.5298,0.353,-0.2612,-0.2597,-0.7128,-0.0097,0.714,0.853,0.664,-5.1,-25.187,-26.687,3
0.7269,-0.5255,0.356,-0.262,-0.2739,-0.7377,-0.0087,0.699,0.656,0.601,-5.1,-25.187,-26.687,3
0.7299,-0.5181,0.3601,-0.2624,-0.288,-0.7939,0.0024,0.592,0.358,0.527,-5.1,-25.187,-26.687,3
0.7333,-0.5122,0.3624,-0.2615,-0.3125,-0.8383,-0.0087,0.52,0.082,0.476,-5.1,-25.187,-26.687,3
0.735,-0.5099,0.3627,-0.2607,-0.3012,-0.8515,-0.0087,0.532,-0.068,0.412,-5.1,-25.187,-26.687,3
0.737,-0.5079,0.3621,-0.2599,-0.2998,-0.8471,0.0004,0.498,-0.21,0.317,-5.1,-25.187,-26.687,3
0.7414,-0.5052,0.3584,-0.2579,-0.2109,-0.8955,0.0625,0.314,-0.316,0.046,-5.1,-25.187,-26.687,3
0.7422,-0.5046,0.3576,-0.2578,-0.2099,-0.9228,0.0825,0.268,-0.161,0.038,-5.1,-25.187,-26.687,3
0.7426,-0.5039,0.3575,-0.258,-0.2216,-0.9707,0.0644,0.238,0.003,0.055,-5.1,-25.187,-26.687,3
0.7428,-0.5031,0.3581,-0.2582,-0.267,-1.0434,0.0366,0.206,0.11,0.103,-5.1,-25.187,-26.687,3
0.743,-0.5023,0.3587,-0.2583,-0.2866,-1.0332,0.0317,0.199,0.121,0.129,-5.1,-25.187,-26.687,3
0.7427,-0.5002,0.3606,-0.2606,-0.1992,-1.0805,0.1406,-0.067,0.015,-0.148,-4.95,-23.087,-32.387,3
0.7404,-0.5014,0.3609,-0.2643,-0.0834,-1.0649,0.2119,-0.054,0.396,-0.416,-4.95,-23.087,-32.387,3
0.7384,-0.502,0.3617,-0.268,-0.0615,-1.062,0.2158,-0.049,0.632,-0.557,-4.95,-23.087,-32.387,3
0.7358,-0.5023,0.3628,-0.2728,-0.0698,-1.0458,0.2241,-0.011,0.854,-0.693,-4.95,-23.087,-32.387,3
0.7267,-0.5027,0.3677,-0.2894,-0.208,-1.0244,0.1997,-0.029,1.041,-0.811,-4.95,-23.087,-32.387,3
0.7179,-0.5039,0.3737,-0.3014,-0.2329,-1.2583,0.2348,-0.218,0.909,-0.483,-4.95,-23.087,-32.387,3
0.7072,-0.5052,0.3811,-0.315,-0.2421,-1.2163,0.2651,-0.202,0.619,-0.671,-4.95,-23.087,-32.387,3
0.6798,-0.5239,0.379,-0.3458,-0.125,-0.9589,0.3012,-0.596,0.258,-1.16,-2.1,-18.287,-32.237,3
0.6766,-0.5277,0.377,-0.3485,-0.1245,-0.9423,0.2734,-0.56,0.007,-1.115,-2.1,-18.287,-32.237,3
0.6717,-0.5357,0.3706,-0.3526,-0.1005,-0.9013,0.2187,-0.445,-0.4,-1.124,-2.1,-18.287,-32.237,3
0.6697,-0.5398,0.3667,-0.3543,-0.0795,-0.8583,0.1821,-0.387,-0.506,-1.134,-2.1,-18.287,-32.237,3
0.6678,-0.5439,0.3625,-0.3558,-0.0502,-0.8198,0.1611,-0.35,-0.563,-1.132,-2.1,-18.287,-32.237,3
0.666,-0.5479,0.3584,-0.3573,-0.0249,-0.7915,0.1406,-0.335,-0.562,-1.098,-2.1,-18.287,-32.237,3
0.6642,-0.5516,0.3544,-0.3588,0.0043,-0.7753,0.1298,-0.32,-0.519,-1.061,-2.1,-18.287,-32.237,3
0.6606,-0.5581,0.3473,-0.3625,0.0336,-0.7529,0.142,-0.217,-0.33,-1.017,-2.1,-18.287,-32.237,3
0.6588,-0.5606,0.3442,-0.3648,0.0166,-0.7617,0.1655,-0.139,-0.221,-0.99,-2.1,-18.287,-32.237,3
0.6571,-0.5626,0.3413,-0.3674,-0.0063,-0.7661,0.2026,-0.07,-0.12,-0.951,-2.1,-18.287,-32.237,3
0.6452,-0.5751,0.3249,-0.3837,-0.2187,-0.8437,0.1079,-0.118,-0.305,-0.626,-9.9,-15.887,-26.087,3
0.6432,-0.5825,0.3156,-0.3836,-0.1494,-0.9521,0.1567,-0.171,-0.409,-0.4,-9.9,-15.887,-26.087,3
0.6415,-0.5872,0.3122,-0.3821,-0.1337,-1.0234,0.1704,-0.205,-0.167,-0.122,-9.9,-15.887,-26.087,3
0.6412,-0.5881,0.3122,-0.3812,-0.1367,-1.0351,0.1582,-0.227,-0.18,-0.038,-9.9,-15.887,-26.087,3
0.6413,-0.5899,0.3124,-0.378,-0.1162,-1.0805,0.1557,-0.234,-0.287,0.159,-9.9,-15.887,-26.087,3
0.6417,-0.5909,0.3125,-0.3759,-0.0878,-1.103,0.1704,-0.236,-0.347,0.25,-9.9,-15.887,-26.087,3
0.6421,-0.5917,0.3128,-0.3734,-0.0415,-1.1347,0.1933,-0.239,-0.366,0.341,-9.9,-15.887,-26.087,3
0.6427,-0.5925,0.3134,-0.3708,-0.0122,-1.1586,0.2128,-0.241,-0.332,0.425,-9.9,-15.887,-26.087,3
0.6434,-0.5929,0.3143,-0.3681,0.0053,-1.1586,0.2202,-0.22,-0.287,0.493,-11.55,-9.287,-23.987,3
0.6441,-0.5931,0.3156,-0.3655,0.0136,-1.1674,0.2353,-0.199,-0.211,0.552,-11.55,-9.287,-23.987,3
0.6448,-0.5929,0.3173,-0.3631,0.0302,-1.1875,0.2509,-0.177,-0.09,0.597,-11.55,-9.287,-23.987,3
0.6454,-0.5923,0.3196,-0.361,0.0434,-1.2163,0.2446,-0.168,0.049,0.63,-11.55,-9.287,-23.987,3
0.6551,-0.5801,0.3435,-0.341,-0.1718,-1.3369,-0.0493,0.109,-0.595,0.977,-11.55,-9.287,-23.987,3
0.6583,-0.5796,0.3432,-0.3356,-0.1196,-1.2968,-0.041,0.085,-0.873,0.948,-11.55,-9.287,-23.987,3
0.6618,-0.5797,0.3421,-0.3298,-0.08,-1.2539,-0.0395,0.072,-1.102,0.902,-11.55,-9.287,-23.987,3
0.6695,-0.5804,0.3377,-0.3174,0.0014,-1.1992,-0.0151,0.158,-1.388,0.794,-11.55,-9.287,-23.987,3
0.6735,-0.5805,0.335,-0.3114,0.0498,-1.1782,0.0029,0.233,-1.382,0.772,-11.55,-9.287,-23.987,3
0.6776,-0.5802,0.3325,-0.3057,0.0668,-1.185,0.0166,0.294,-1.304,0.781,-11.55,-9.287,-23.987,3
0.6935,-0.5747,0.3268,-0.2859,0.0439,-1.1069,0.0278,0.469,-0.76,0.932,6.299,-5.837,32.399,3
0.6969,-0.5729,0.3265,-0.2816,0.0302,-1.0664,0.0117,0.442,-0.672,0.982,6.299,-5.837,32.399,3
0.7218,-0.5292,0.3574,-0.2663,-0.1933,-0.6616,0.0117,0.524,0.477,0.416,6.299,-5.837,32.399,3
0.7269,-0.5204,0.3601,-0.2663,-0.3505,-0.7905,-0.02,0.6,-0.014,0.389,16.799,-12.137,24.299,3
0.7291,-0.5182,0.3596,-0.2652,-0.3554,-0.8281,-0.041,0.599,-0.27,0.34,16.799,-12.137,24.299,3
0.7317,-0.5166,0.3579,-0.2637,-0.3481,-0.8417,-0.0419,0.576,-0.563,0.267,16.799,-12.137,24.299,3
0.741,-0.5173,0.343,-0.2558,-0.1552,-0.9272,0.0693,0.218,-0.92,-0.102,16.799,-12.137,24.299,3
0.7422,-0.518,0.3401,-0.2548,-0.124,-0.9531,0.0825,0.165,-0.662,-0.1,16.799,-12.137,24.299,3
0.7429,-0.5184,0.3384,-0.2544,-0.1293,-0.9809,0.0737,0.124,-0.393,-0.067,16.799,-12.137,24.299,3
0.7431,-0.5186,0.3375,-0.2543,-0.1401,-0.9863,0.0561,0.117,-0.167,-0.04,16.799,-12.137,24.299,3
0.7421,-0.5144,0.3433,-0.258,-0.2299,-1.1054,0.0151,0.211,0.519,0.17,16.799,-12.137,24.299,3
0.7099,-0.5122,0.3756,-0.304,-0.3276,-1.3173,0.2124,-0.447,1.222,-0.84,21.299,-17.087,23.249,3
0.6981,-0.5194,0.378,-0.316,-0.1958,-1.1489,0.3271,-0.53,0.454,-0.978,21.299,-17.087,23.249,3
0.6586,-0.5752,0.3296,-0.3556,-0.0087,-0.7836,0.2211,0.025,0.116,-0.912,16.649,-17.987,-32.387,3
0.6287,-0.5812,0.3195,-0.4057,-0.1723,-0.9985,0.1933,-0.103,0.159,-0.184,11.099,-21.137,-28.337,3
0.6283,-0.5813,0.32,-0.4059,-0.1694,-1.0078,0.207,-0.124,0.075,-0.096,11.099,-21.137,-28.337,3
0.6284,-0.5816,0.321,-0.4044,-0.1606,-1.0371,0.1997,-0.149,-0.096,0.098,11.099,-21.137,-28.337,3
0.6288,-0.5821,0.3214,-0.4029,-0.1508,-1.0698,0.1777,-0.176,-0.192,0.17,11.099,-21.137,-28.337,3
0.6294,-0.5837,0.3222,-0.3989,-0.0537,-1.1542,0.124,-0.239,-0.292,0.315,11.099,-21.137,-28.337,3
0.6304,-0.5845,0.3238,-0.3948,0.0527,-1.2241,0.1323,-0.173,-0.153,0.393,11.099,-21.137,-28.337,3
0.6308,-0.5841,0.3256,-0.3934,0.0761,-1.2539,0.1264,-0.148,0.066,0.448,11.099,-21.137,-28.337,3
0.631,-0.5814,0.3315,-0.3921,0.0297,-1.2944,0.0981,-0.082,0.503,0.574,11.099,-21.137,-28.337,3
0.6311,-0.5794,0.3352,-0.3918,-0.0087,-1.2944,0.0937,-0.043,0.611,0.627,11.099,-21.137,-28.337,3
0.6343,-0.5688,0.3534,-0.386,-0.1499,-1.3837,0.0224,-0.05,0.001,0.888,11.399,-27.737,-25.637,3
0.6365,-0.5681,0.3549,-0.382,-0.1137,-1.35,0.0068,-0.063,-0.366,0.913,11.399,-27.737,-25.637,3
0.642,-0.5693,0.3546,-0.3713,-0.039,-1.2617,-0.0322,-0.15,-1.075,0.828,11.399,-27.737,-25.637,3
0.6452,-0.5708,0.3527,-0.3652,0.0654,-1.2177,0.0288,-0.122,-1.329,0.7,11.399,-27.737,-25.637,3
0.6542,-0.5739,0.3473,-0.3491,0.2548,-1.1025,0.1347,0.018,-0.985,0.656,11.399,-27.737,-25.637,3
0.6569,-0.5738,0.3465,-0.3448,0.246,-1.0844,0.1425,0.086,-0.809,0.68,11.399,-27.737,-25.637,3
0.6749,-0.5649,0.3484,-0.3222,0.0,-0.788,0.0649,0.213,-0.301,0.668,11.399,-27.737,-25.637,3
0.6788,-0.5621,0.3497,-0.3176,0.0253,-0.749,0.0742,0.222,-0.192,0.624,6.299,29.099,-23.687,3
0.6806,-0.5602,0.3508,-0.3158,0.0278,-0.7456,0.0771,0.264,-0.071,0.639,6.299,29.099,-23.687,3
0.6842,-0.555,0.354,-0.3134,-0.0151,-0.7509,0.1044,0.413,0.192,0.666,6.299,29.099,-23.687,3
0.6859,-0.552,0.3562,-0.3127,-0.0366,-0.7358,0.1,0.441,0.294,0.687,6.299,29.099,-23.687,3
0.6891,-0.5455,0.3613,-0.3113,-0.0927,-0.7548,0.059,0.416,0.403,0.738,6.299,29.099,-23.687,3
0.692,-0.539,0.3668,-0.3096,-0.1772,-0.7973,0.0063,0.384,0.373,0.764,6.299,29.099,-23.687,3
0.6953,-0.533,0.3711,-0.3076,-0.2758,-0.8398,-0.0209,0.409,0.218,0.7,6.299,29.099,-23.687,3
0.7068,-0.5243,0.369,-0.2985,-0.1518,-0.8559,0.0048,0.241,-0.69,0.242,6.299,29.099,-23.687,3
0.7097,-0.5244,0.3657,-0.2956,-0.0737,-0.8823,0.0878,0.127,-0.393,0.092,6.299,29.099,-23.687,3
0.7103,-0.524,0.3654,-0.2953,-0.0688,-0.8867,0.0883,0.107,-0.102,0.09,6.299,29.099,-23.687,3
0.7103,-0.5235,0.3659,-0.2954,-0.102,-0.9038,0.0776,0.093,0.116,0.11,2.699,26.099,-22.187,3
0.7102,-0.5228,0.3669,-0.2957,-0.1308,-0.9096,0.0673,0.092,0.233,0.125,2.699,26.099,-22.187,3
0.71,-0.5219,0.3682,-0.2961,-0.163,-0.9501,0.0478,0.106,0.292,0.169,2.699,26.099,-22.187,3
0.7046,-0.5129,0.3853,-0.3032,-0.2192,-1.0874,0.0698,0.025,0.748,-0.153,2.699,26.099,-22.187,3
0.6894,-0.513,0.3954,-0.3241,-0.1782,-1.2343,0.1811,-0.091,0.829,-0.63,2.699,26.099,-22.187,3
0.6809,-0.5126,0.401,-0.3356,-0.2924,-1.309,0.1376,-0.117,0.886,-0.466,-5.25,21.899,-16.787,3
0.6696,-0.5204,0.4012,-0.346,-0.1489,-1.0756,0.3588,-0.501,0.101,-0.7,-5.25,21.899,-16.787,3
0.6669,-0.5236,0.4001,-0.3475,-0.1215,-1.0175,0.3491,-0.622,0.019,-0.755,-5.25,21.899,-16.787,3
0.6644,-0.5273,0.3985,-0.3484,-0.082,-0.9833,0.3095,-0.658,-0.156,-0.763,-5.25,21.899,-16.787,3
0.6612,-0.535,0.3939,-0.3483,0.0312,-0.9545,0.2275,-0.545,-0.541,-0.563,-5.25,21.899,-16.787,3
0.6579,-0.5436,0.3868,-0.3491,0.0922,-0.9536,0.2055,-0.282,-0.162,-0.553,-5.25,21.899,-16.787,3
0.6561,-0.5452,0.3857,-0.3512,0.0703,-0.9345,0.1606,-0.191,0.134,-0.607,-5.25,21.899,-16.787,3
0.6501,-0.548,0.3835,-0.3604,-0.0288,-0.8535,0.1103,-0.021,0.328,-0.74,-5.25,21.899,-16.787,3
0.6452,-0.5519,0.3777,-0.3693,-0.0429,-0.7851,0.125,0.04,-0.021,-0.894,-5.25,21.899,-16.787,3
0.6439,-0.5537,0.3747,-0.372,-0.0385,-0.7836,0.1328,0.045,-0.125,-0.942,-15.0,22.499,-11.837,3
0.6425,-0.5556,0.3715,-0.3745,-0.0405,-0.8032,0.1425,0.033,-0.177,-0.956,-15.0,22.499,-11.837,3
0.6293,-0.568,0.3523,-0.3963,-0.1469,-0.9018,0.0825,-0.003,0.033,-0.838,-15.0,22.499,-11.837,3
0.6278,-0.5693,0.3502,-0.3986,-0.1416,-0.9091,0.0795,-0.004,-0.007,-0.814,-15.0,22.499,-11.837,3
0.625,-0.5716,0.3463,-0.4032,-0.1269,-0.916,0.1396,-0.005,0.044,-0.779,-15.0,22.499,-11.837,3
0.6192,-0.5745,0.3424,-0.4113,-0.1845,-0.955,0.1547,-0.085,0.153,-0.525,-15.0,22.499,-11.837,3
0.6172,-0.576,0.3414,-0.413,-0.1801,-0.9829,0.1323,-0.142,-0.022,-0.36,-15.0,22.499,-11.837,3
0.6159,-0.58,0.3396,-0.4108,-0.1396,-1.0473,0.1196,-0.259,-0.357,-0.109,-24.6,20.549,-7.787,3
0.6171,-0.5858,0.3376,-0.4024,-0.0039,-1.1064,0.1689,-0.257,-0.435,0.25,-24.6,20.549,-7.787,3
0.6176,-0.5864,0.3382,-0.4002,0.041,-1.1157,0.1748,-0.21,-0.274,0.35,-24.6,20.549,-7.787,3
0.6179,-0.5863,0.3397,-0.3986,0.0551,-1.1337,0.1801,-0.178,-0.02,0.426,-24.6,20.549,-7.787,3
0.618,-0.5845,0.3448,-0.3966,-0.0292,-1.2392,0.104,-0.161,0.335,0.526,-24.6,20.549,-7.787,3
0.6182,-0.5836,0.3476,-0.3954,-0.0688,-1.2846,0.0517,-0.173,0.252,0.572,-24.6,20.549,-7.787,3
0.6199,-0.5823,0.3517,-0.3909,-0.1074,-1.4238,-0.0034,-0.135,-0.101,0.681,-24.6,20.549,-7.787,3
0.6215,-0.5819,0.3532,-0.3877,-0.1079,-1.478,-0.0385,-0.094,-0.274,0.757,-24.6,20.549,-7.787,3
0.6237,-0.5816,0.3541,-0.3836,-0.0756,-1.5068,-0.0576,-0.059,-0.513,0.825,-24.6,20.549,-7.787,3
0.6333,-0.5816,0.3537,-0.368,0.0522,-1.3867,-0.0175,0.041,-0.988,0.922,-24.6,20.549,-7.787,3
0.6485,-0.5824,0.3484,-0.3444,0.1445,-1.1142,0.0419,0.172,-1.248,0.836,-30.15,24.449,-1.637,3
0.6521,-0.5824,0.3467,-0.3394,0.2104,-1.0644,0.0703,0.205,-1.078,0.835,-30.15,24.449,-1.637,3
0.6615,-0.5782,0.3468,-0.3282,0.1552,-1.0151,0.08,0.331,-0.319,0.998,-30.15,24.449,-1.637,3
0.6815,-0.5612,0.3602,-0.3013,0.0219,-0.8496,0.0556,0.252,0.104,0.962,-30.15,24.449,-1.637,3
0.6849,-0.555,0.366,-0.2979,-0.0253,-0.7929,0.0766,0.357,0.337,0.887,-30.15,24.449,-1.637,3
0.6893,-0.5438,0.3755,-0.2967,-0.1318,-0.7094,0.0307,0.486,0.541,0.743,-30.15,24.449,-1.637,3
0.6922,-0.5373,0.3804,-0.2954,-0.2026,-0.7841,-0.0366,0.397,0.285,0.705,-27.75,32.549,-4.037,3
0.694,-0.5346,0.3818,-0.2942,-0.2099,-0.8056,-0.0512,0.404,0.088,0.665,-27.75,32.549,-4.037,3
0.7004,-0.5298,0.3809,-0.2891,-0.1674,-0.8432,-0.0488,0.28,-0.463,0.358,-27.75,32.549,-4.037,3
0.7043,-0.5282,0.3786,-0.2853,-0.1318,-0.8798,0.0024,0.246,-0.454,0.332,-27.75,32.549,-4.037,3
0.706,-0.5273,0.3781,-0.2836,-0.1401,-0.852,0.0151,0.224,-0.33,0.356,-27.75,32.549,-4.037,3
0.71,-0.5241,0.3775,-0.2801,-0.1391,-0.8364,-0.0268,0.187,-0.091,0.131,-27.75,32.549,-4.037,3
0.7111,-0.5204,0.3787,-0.2826,-0.1386,-0.8789,-0.0292,0.283,0.327,-0.003,-27.75,32.549,-4.037,3
0.7102,-0.5187,0.3805,-0.2854,-0.1757,-0.955,-0.0258,0.188,0.333,-0.052,-27.75,32.549,-4.037,3
0.7099,-0.518,0.3814,-0.2867,-0.1879,-1.0029,-0.0039,0.197,0.32,-0.03,-27.75,32.549,-4.037,3
0.7096,-0.5169,0.3824,-0.2879,-0.1958,-1.0126,0.0327,0.205,0.365,0.025,-27.75,32.549,-4.037,3
0.7091,-0.5158,0.3839,-0.289,-0.205,-1.0283,0.0546,0.177,0.426,0.079,-27.75,32.549,-4.037,3
0.7086,-0.5147,0.3854,-0.2902,-0.2153,-1.0122,0.0522,0.154,0.45,0.059,-27.15,-25.487,-6.737,3
0.7059,-0.5132,0.3888,-0.2949,-0.2441,-1.0546,0.1,0.079,0.444,-0.219,-27.15,-25.487,-6.737,3
0.7031,-0.5127,0.3908,-0.2998,-0.3134,-1.184,0.1088,0.009,0.55,-0.33,-27.15,-25.487,-6.737,3
0.6961,-0.5159,0.3913,-0.3099,-0.3818,-1.4545,0.1904,-0.174,0.15,-0.302,-27.15,-25.487,-6.737,3
0.6936,-0.5181,0.3917,-0.3112,-0.3901,-1.3867,0.1787,-0.301,0.083,-0.241,-27.15,-25.487,-6.737,3
0.6901,-0.5272,0.3861,-0.3108,-0.1489,-1.0849,0.3251,-0.537,-0.572,-0.665,-27.15,-25.487,-6.737,3
0.6814,-0.5494,0.369,-0.3122,0.0585,-0.811,0.1972,-0.551,-0.844,-0.731,-31.5,-22.787,-5.687,3
0.6821,-0.5576,0.3583,-0.3085,0.0966,-0.873,0.2021,-0.28,-1.327,-0.558,-31.5,-22.787,-5.687,3
0.6836,-0.563,0.3485,-0.3066,0.1777,-0.9755,0.2211,-0.052,-0.826,-0.433,-31.5,-22.787,-5.687,3
0.6831,-0.5658,0.3432,-0.3086,0.1684,-0.9995,0.1518,0.002,-0.178,-0.463,-31.5,-22.787,-5.687,3
0.6822,-0.567,0.3413,-0.3104,0.1386,-1.0078,0.103,-0.013,-0.069,-0.542,-31.5,-22.787,-5.687,3
0.6812,-0.5684,0.3392,-0.3124,0.1225,-1.0034,0.082,-0.039,-0.055,-0.601,-31.5,-22.787,-5.687,3
0.6789,-0.5709,0.3346,-0.3179,0.0737,-0.8867,0.1171,0.061,0.033,-0.823,-31.5,-22.787,-5.687,3
0.6774,-0.5722,0.3325,-0.3208,0.0551,-0.9111,0.1083,-0.022,0.063,-0.788,-31.5,-22.787,-5.687,3
0.6643,-0.5711,0.327,-0.3542,-0.2709,-0.9067,0.0517,-0.026,0.344,-0.582,-31.5,-22.787,-5.687,3
0.6626,-0.5753,0.3212,-0.356,-0.228,-0.895,0.1,-0.036,-0.499,-0.52,26.986,-19.787,-3.137,3
0.6626,-0.5806,0.3134,-0.3542,-0.1293,-0.871,0.1796,-0.149,-0.534,-0.3,26.986,-19.787,-3.137,3
0.6626,-0.5821,0.3118,-0.3532,-0.1337,-0.8847,0.1855,-0.177,-0.453,-0.192,26.986,-19.787,-3.137,3
0.6626,-0.5833,0.3108,-0.3521,-0.1279,-0.8881,0.1767,-0.187,-0.361,-0.09,26.986,-19.787,-3.137,3
0.663,-0.5861,0.3102,-0.3471,-0.1484,-0.9252,0.1284,-0.236,-0.34,0.182,26.986,-19.787,-3.137,3
0.6635,-0.5871,0.3101,-0.3446,-0.1337,-0.9423,0.1142,-0.23,-0.417,0.243,26.986,-19.787,-3.137,3
0.6662,-0.5899,0.309,-0.3354,-0.0561,-1.0087,0.1582,-0.19,-0.578,0.415,26.986,-19.787,-3.137,3
0.6694,-0.5909,0.3099,-0.3265,-0.0239,-1.0517,0.2031,-0.129,-0.288,0.519,26.986,-19.787,-3.137,3
0.6702,-0.5906,0.3111,-0.3242,-0.0258,-1.0629,0.2036,-0.135,-0.154,0.544,26.986,-19.787,-3.137,3
0.671,-0.5901,0.3149,-0.3195,-0.0971,-1.1352,0.1713,-0.203,-0.008,0.622,26.536,-15.587,0.463,3
0.6793,-0.589,0.3255,-0.2924,-0.1474,-1.4843,-0.0468,-0.162,-0.82,0.866,26.536,-15.587,0.463,3
0.6842,-0.5904,0.3234,-0.2802,-0.0532,-1.2973,-0.0493,-0.145,-1.14,0.817,26.536,-15.587,0.463,3
0.689,-0.5915,0.3209,-0.2686,0.0673,-1.1118,-0.0083,-0.063,-1.045,0.749,26.536,-15.587,0.463,3
0.6966,-0.5911,0.3168,-0.2548,0.0898,-0.9116,0.0327,0.196,-0.826,0.722,26.536,-15.587,0.463,3
0.7029,-0.5883,0.3169,-0.2436,0.0424,-0.8662,-0.0654,0.125,-0.413,0.711,26.536,-15.587,0.463,3
0.7046,-0.5872,0.3173,-0.2405,-0.0214,-0.8886,-0.1025,0.141,-0.385,0.667,26.536,-15.587,0.463,3
0.7062,-0.5866,0.3174,-0.2373,-0.0634,-0.8945,-0.1176,0.144,-0.451,0.629,26.536,-15.587,0.463,3
0.7077,-0.5864,0.317,-0.2338,-0.0678,-0.9184,-0.1215,0.084,-0.586,0.574,-27.15,-4.037,-2.837,3
0.7123,-0.5858,0.3153,-0.2235,-0.0986,-0.9858,-0.0717,0.153,-0.504,0.552,-27.15,-4.037,-2.837,3
0.7136,-0.5855,0.3149,-0.2206,-0.0859,-0.9614,-0.0971,0.102,-0.493,0.496,-27.15,-4.037,-2.837,3
0.7145,-0.5859,0.3142,-0.2176,-0.0546,-0.9399,-0.0815,-0.035,-0.543,0.436,-27.15,-4.037,-2.837,3
0.715,-0.5865,0.3138,-0.2148,-0.0546,-0.9667,-0.0327,-0.139,-0.472,0.397,-27.15,-4.037,-2.837,3
0.7152,-0.5868,0.3141,-0.2126,-0.0761,-0.9785,-0.0043,-0.129,-0.238,0.396,-27.15,-4.037,-2.837,3
0.7155,-0.5867,0.3198,-0.2033,-0.3227,-0.9052,-0.1245,-0.193,-0.337,0.57,-27.15,-4.037,-2.837,3
0.718,-0.5914,0.3156,-0.1868,-0.2861,-0.9326,-0.2133,-0.397,-1.375,0.494,-27.15,-4.037,-2.837,3
0.7197,-0.6196,0.2891,-0.1204,-0.1655,-0.9941,-0.0957,-0.415,-0.491,0.297,-17.1,0.613,-5.087,3
0.7203,-0.6214,0.2875,-0.1105,-0.2788,-0.9848,-0.0839,-0.089,-0.64,0.484,-17.1,0.613,-5.087,3
0.7214,-0.6214,0.2863,-0.1058,-0.2734,-0.9716,-0.0849,-0.053,-0.863,0.576,-17.1,0.613,-5.087,3
0.7336,-0.6211,0.2701,-0.0544,-0.2265,-0.9741,0.0209,0.086,-1.016,0.867,-17.1,0.613,-5.087,3
0.7398,-0.6142,0.2713,-0.0422,-0.2221,-1.0625,0.1152,0.573,-0.285,0.836,-6.6,4.664,-5.237,3
0.7442,-0.6067,0.2762,-0.041,-0.2822,-1.1118,0.1596,0.828,0.383,0.57,-6.6,4.664,-5.237,3
0.7467,-0.6,0.2834,-0.0432,-0.4448,-1.1503,0.0634,0.651,0.662,0.456,-6.6,4.664,-5.237,3
0.7479,-0.5974,0.2859,-0.0437,-0.5537,-1.0957,0.0,0.555,0.401,0.397,-6.6,4.664,-5.237,3
0.7493,-0.5952,0.2868,-0.0436,-0.6308,-0.9965,-0.0126,0.502,0.066,0.282,-6.6,4.664,-5.237,3
0.7508,-0.5933,0.2867,-0.0434,-0.6513,-0.9018,0.0092,0.467,-0.124,0.141,-6.6,4.664,-5.237,3
0.7541,-0.5922,0.2804,-0.0417,-0.3857,-0.6987,0.0766,-0.22,-0.666,-0.247,-6.6,4.664,-5.237,3
0.7538,-0.5961,0.2737,-0.0376,-0.2944,-0.9765,0.2426,-0.453,-0.703,-0.143,-6.6,4.664,-5.237,3
0.7533,-0.598,0.271,-0.0357,-0.3393,-1.0131,0.2197,-0.142,-0.222,-0.067,-6.6,4.664,-5.237,3
0.7548,-0.5973,0.2682,-0.0355,-0.3608,-0.976,0.1259,0.062,-0.037,0.095,-3.75,6.763,-10.937,3
0.7551,-0.597,0.2683,-0.0346,-0.4248,-0.9843,0.0991,0.06,-0.123,0.16,-3.75,6.763,-10.937,3
0.7571,-0.5957,0.266,-0.0308,-0.4848,-0.9814,0.1098,0.108,-0.407,0.073,-3.75,6.763,-10.937,3
0.7588,-0.597,0.2589,-0.0253,-0.4643,-0.9638,0.1162,-0.241,-0.839,-0.086,-3.75,6.763,-10.937,3
0.7593,-0.6007,0.2494,-0.0196,-0.3022,-0.9848,0.1889,-0.39,-1.162,-0.253,-3.75,6.763,-10.937,3
0.7596,-0.6023,0.2445,-0.0173,-0.2128,-0.9819,0.2324,-0.334,-1.052,-0.265,-3.75,6.763,-10.937,3
0.7594,-0.605,0.2385,-0.0153,-0.1318,-0.9404,0.2661,-0.311,-0.371,-0.197,-3.75,6.763,-10.937,3
0.7558,-0.6094,0.2386,-0.0181,-0.2954,-0.9096,0.0961,-0.211,0.131,-0.116,-3.75,6.763,-10.937,3
0.7553,-0.6103,0.2379,-0.0182,-0.3081,-0.9223,0.0751,-0.169,-0.075,-0.125,-3.75,6.763,-10.937,3
0.7558,-0.6114,0.2334,-0.0192,-0.2011,-0.9194,0.1616,0.112,0.214,-0.124,-3.3,7.813,-8.987,3
0.7556,-0.6102,0.2365,-0.024,-0.228,-0.9296,0.1557,0.215,0.673,-0.104,-3.3,7.813,-8.987,3
0.7539,-0.6061,0.2502,-0.0393,-0.3999,-0.8964,0.1293,0.256,1.081,-0.151,-3.3,7.813,-8.987,3
0.7533,-0.6053,0.2533,-0.0429,-0.4335,-0.9121,0.1093,0.215,0.961,-0.172,-3.3,7.813,-8.987,3
0.625,-0.4586,0.3899,-0.4969,-0.0439,-0.9721,0.2846,-0.041,-0.006,-0.038,-6.08,-26.903,-28.463,4
0.6248,-0.4592,0.3893,-0.497,-0.0185,-0.9741,0.2895,0.0,-0.043,-0.041,-6.08,-26.903,-28.463,4
0.6248,-0.4593,0.3891,-0.4971,-0.0356,-0.9633,0.2919,-0.008,-0.008,-0.018,-6.08,-26.903,-28.463,4
0.6246,-0.4594,0.3892,-0.4971,-0.0317,-0.9643,0.2778,-0.011,0.011,-0.009,-6.08,-26.903,-28.463,4
0.6248,-0.4595,0.3891,-0.4969,-0.041,-0.9672,0.2744,0.005,-0.038,0.009,-6.08,-26.903,-28.463,4
0.6249,-0.4596,0.3889,-0.4967,-0.0292,-0.9658,0.2778,-0.002,-0.033,0.008,-4.88,-25.553,-26.513,4
0.6252,-0.4598,0.3887,-0.4964,-0.0131,-0.9643,0.2812,0.004,-0.027,0.009,-4.88,-25.553,-26.513,4
0.6259,-0.4596,0.3883,-0.496,-0.0356,-0.979,0.291,0.009,-0.027,0.028,-4.88,-25.553,-26.513,4
0.6262,-0.4594,0.3886,-0.4955,-0.0195,-0.9711,0.2734,0.0,0.036,0.017,-4.88,-25.553,-26.513,4
0.626,-0.4588,0.3896,-0.4957,-0.0527,-0.9692,0.2753,-0.016,0.044,0.024,-4.88,-25.553,-26.513,4
0.6258,-0.4591,0.389,-0.496,-0.0336,-0.978,0.289,0.0,-0.014,-0.044,-4.13,-26.303,-28.313,4
0.6256,-0.4591,0.389,-0.4963,-0.0737,-0.9765,0.2866,-0.001,0.033,-0.024,-4.13,-26.303,-28.313,4
0.6254,-0.4586,0.3895,-0.4966,-0.1352,-0.9931,0.2817,0.006,0.047,-0.013,-4.13,-26.303,-28.313,4
0.6255,-0.4582,0.3898,-0.4967,-0.1806,-0.9843,0.2758,0.015,-0.019,-0.053,-4.13,-26.303,-28.313,4
0.6254,-0.4585,0.3896,-0.4967,-0.184,-0.9663,0.2749,-0.011,-0.051,-0.107,-5.48,-25.853,-28.613,4
0.6251,-0.459,0.3892,-0.4969,-0.1743,-0.9296,0.2675,-0.045,-0.086,-0.188,-5.48,-25.853,-28.613,4
0.6196,-0.4676,0.3821,-0.5012,-0.0585,-0.7954,0.1455,-0.057,-0.223,-0.518,-5.48,-25.853,-28.613,4
0.619,-0.4692,0.3801,-0.502,-0.0546,-0.8291,0.1459,0.016,-0.298,-0.471,-5.48,-25.853,-28.613,4
0.619,-0.4708,0.3779,-0.5022,-0.041,-0.9223,0.1538,0.087,-0.437,-0.388,-5.48,-25.853,-28.613,4
0.6196,-0.4725,0.3755,-0.5016,-0.0122,-1.0112,0.1738,0.078,-0.583,-0.228,-5.48,-25.853,-28.613,4
0.6206,-0.4744,0.3735,-0.5001,0.0141,-1.0766,0.1855,-0.012,-0.691,-0.057,-5.48,-25.853,-28.613,4
0.6236,-0.4808,0.3692,-0.4935,0.1791,-1.0488,0.2031,-0.14,-0.195,0.052,-5.48,-25.853,-28.613,4
0.6177,-0.4508,0.3867,-0.5153,-0.0742,-0.8569,0.333,0.155,1.395,-0.43,-7.283,-27.384,-26.038,4
0.6097,-0.448,0.3911,-0.5238,-0.0864,-0.7934,0.3525,-0.154,1.062,-0.693,-7.283,-27.384,-26.038,4
0.6059,-0.4476,0.393,-0.5272,-0.1166,-0.8286,0.3569,-0.267,0.882,-0.665,-7.283,-27.384,-26.038,4
0.6027,-0.4476,0.3947,-0.5295,-0.1552,-0.8925,0.3823,-0.343,0.663,-0.534,-7.283,-27.384,-26.038,4
0.6005,-0.4479,0.3961,-0.5308,-0.205,-0.9824,0.3886,-0.338,0.429,-0.376,-7.283,-27.384,-26.038,4
0.5982,-0.4502,0.3963,-0.5313,-0.2602,-1.059,0.4541,-0.195,-0.129,-0.225,-7.283,-27.384,-26.038,4
0.5975,-0.4519,0.3957,-0.5311,-0.2324,-1.062,0.4838,-0.219,-0.22,-0.241,-7.283,-27.384,-26.038,4
0.5966,-0.4538,0.3952,-0.5308,-0.1723,-1.059,0.4814,-0.287,-0.228,-0.262,-7.283,-27.384,-26.038,4
0.5955,-0.4559,0.395,-0.5304,-0.0952,-1.039,0.476,-0.365,-0.206,-0.263,-7.283,-27.384,-26.038,4
0.5942,-0.4578,0.395,-0.5302,-0.0419,-1.0239,0.4497,-0.383,-0.115,-0.267,-7.283,-27.384,-26.038,4
0.5929,-0.4591,0.3953,-0.5304,-0.0258,-1.0126,0.3945,-0.342,0.015,-0.265,-7.283,-27.384,-26.038,4
0.5915,-0.4599,0.3957,-0.5309,-0.0205,-1.0166,0.3559,-0.262,0.116,-0.256,-7.283,-27.384,-26.038,4
0.5904,-0.4601,0.396,-0.5317,-0.0395,-1.0034,0.3266,-0.127,0.171,-0.233,-7.283,-27.384,-26.038,4
0.5889,-0.4592,0.3962,-0.534,-0.0776,-0.956,0.3095,0.09,0.243,-0.213,-4.741,-25.307,-25.87,4
0.5881,-0.4586,0.3962,-0.5354,-0.0952,-0.9213,0.2958,0.105,0.243,-0.25,-4.741,-25.307,-25.87,4
0.5842,-0.4601,0.3942,-0.5399,-0.0258,-0.7934,0.2724,-0.074,0.026,-0.545,-4.741,-25.307,-25.87,4
0.5825,-0.4617,0.393,-0.5412,0.0063,-0.8164,0.2773,-0.112,-0.054,-0.602,-4.741,-25.307,-25.87,4
0.5807,-0.4634,0.3915,-0.5427,0.0346,-0.8427,0.3027,-0.095,-0.087,-0.654,-4.741,-25.307,-25.87,4
0.5674,-0.465,0.3878,-0.5579,0.0302,-0.9296,0.3618,-0.018,0.546,-0.418,-4.741,-25.307,-25.87,4
0.5651,-0.4639,0.3885,-0.5606,0.0522,-0.9252,0.3676,-0.009,0.638,-0.425,-4.741,-25.307,-25.87,4
0.5628,-0.4623,0.3896,-0.5636,0.0571,-0.936,0.3862,0.04,0.776,-0.402,-4.741,-25.307,-25.87,4
0.5518,-0.4486,0.3979,-0.5795,-0.1342,-0.9833,0.3627,0.248,1.501,-0.32,-7.589,-26.201,-26.172,4
0.5432,-0.4336,0.4059,-0.5933,-0.3217,-0.913,0.3745,0.365,1.428,-0.349,-7.589,-26.201,-26.172,4
0.5412,-0.4292,0.4076,-0.5971,-0.3725,-0.9194,0.4306,0.375,1.176,-0.318,-7.589,-26.201,-26.172,4
0.5394,-0.4234,0.4059,-0.604,-0.4399,-0.9858,0.5375,0.457,-0.027,-0.177,-7.589,-26.201,-26.172,4
0.5431,-0.4253,0.399,-0.604,-0.3168,-0.9956,0.519,0.493,-0.849,-0.159,-7.589,-26.201,-26.172,4
0.5457,-0.4281,0.3939,-0.603,-0.2167,-0.9775,0.4921,0.471,-1.211,-0.229,-7.589,-26.201,-26.172,4
0.5569,-0.4476,0.369,-0.5942,0.2192,-1.1396,0.3681,0.238,-1.067,-0.284,-7.589,-26.201,-26.172,4
0.5629,-0.4468,0.3682,-0.5897,0.0878,-0.935,0.2446,-0.207,0.035,0.533,-10.139,-29.501,-26.622,4
0.5677,-0.4464,0.3729,-0.5824,0.0751,-0.77,0.1972,-0.18,-0.251,0.668,-10.139,-29.501,-26.622,4
0.5699,-0.4466,0.374,-0.5793,0.0786,-0.7543,0.1923,-0.191,-0.357,0.719,-10.139,-29.501,-26.622,4
0.5724,-0.447,0.3753,-0.5758,0.0864,-0.7675,0.1625,-0.242,-0.414,0.791,-10.139,-29.501,-26.622,4
0.5864,-0.447,0.3847,-0.555,0.0278,-0.9306,0.1044,-0.222,-0.268,1.08,-10.139,-29.501,-26.622,4
0.5894,-0.4464,0.3869,-0.5508,-0.0205,-0.9584,0.1049,-0.171,-0.289,1.07,-10.139,-29.501,-26.622,4
0.6031,-0.4467,0.396,-0.5288,-0.0776,-0.9311,0.249,-0.537,-0.337,0.668,-3.988,-31.434,-25.886,4
0.6041,-0.4487,0.3981,-0.5245,-0.0761,-0.9375,0.2299,-0.717,-0.455,0.657,-3.988,-31.434,-25.886,4
0.6061,-0.4579,0.4041,-0.5094,-0.0683,-0.957,0.2202,-0.982,-0.618,0.561,-3.988,-31.434,-25.886,4
0.6063,-0.4611,0.406,-0.5047,-0.0761,-0.9833,0.208,-0.947,-0.569,0.522,-3.988,-31.434,-25.886,4
0.6082,-0.4676,0.4112,-0.492,-0.0678,-0.977,0.1616,-0.587,-0.425,0.62,-3.988,-31.434,-25.886,4
0.6096,-0.4685,0.4128,-0.4881,-0.0771,-0.997,0.1518,-0.445,-0.395,0.704,-3.988,-31.434,-25.886,4
0.6113,-0.4688,0.4144,-0.4844,-0.0893,-0.9946,0.163,-0.328,-0.347,0.755,-3.988,-31.434,-25.886,4
0.6131,-0.4686,0.416,-0.481,-0.0981,-0.979,0.1679,-0.23,-0.26,0.759,-3.988,-31.434,-25.886,4
0.6148,-0.4678,0.4174,-0.4783,-0.0644,-0.9462,0.1884,-0.097,-0.136,0.718,-3.988,-31.434,-25.886,4
0.6228,-0.4458,0.431,-0.477,-0.229,-0.8774,0.2226,0.097,0.161,0.392,1.869,-30.669,-25.897,4
0.6306,-0.4454,0.4294,-0.4683,-0.2807,-1.246,0.1987,0.09,-0.738,0.39,1.869,-30.669,-25.897,4
0.6353,-0.4473,0.424,-0.4651,-0.2158,-1.3315,0.2802,0.254,-0.758,-0.014,1.869,-30.669,-25.897,4
0.6365,-0.4482,0.4214,-0.4651,-0.1591,-1.3276,0.3374,0.244,-0.534,-0.194,1.869,-30.669,-25.897,4
0.6369,-0.449,0.4193,-0.4655,-0.1333,-1.3002,0.3408,0.166,-0.355,-0.288,1.869,-30.669,-25.897,4
0.637,-0.4499,0.4174,-0.4663,-0.1162,-1.3144,0.3408,0.152,-0.278,-0.355,1.869,-30.669,-25.897,4
0.6234,-0.4698,0.387,-0.4906,0.0942,-0.8291,0.2402,0.017,-0.21,-1.039,1.164,30.263,-25.49,4
0.6139,-0.4803,0.3783,-0.4991,0.2695,-0.6601,0.1782,-0.247,-0.064,-0.79,1.164,30.263,-25.49,4
0.614,-0.4702,0.3779,-0.5088,0.2128,-1.0107,0.3159,0.371,1.007,-0.069,1.164,30.263,-25.49,4
0.609,-0.4617,0.3829,-0.5188,0.1269,-0.893,0.3217,0.441,1.568,-0.316,1.164,30.263,-25.49,4
0.6061,-0.4567,0.3856,-0.5246,0.0307,-0.811,0.312,0.525,1.674,-0.392,-3.923,27.589,-23.108,4
0.6031,-0.4515,0.388,-0.5307,-0.0478,-0.7358,0.3022,0.579,1.683,-0.453,-3.923,27.589,-23.108,4
0.6001,-0.4466,0.3902,-0.5367,-0.1196,-0.6962,0.291,0.564,1.596,-0.479,-3.923,27.589,-23.108,4
0.5971,-0.4427,0.392,-0.5419,-0.1713,-0.663,0.2949,0.441,1.381,-0.487,-3.923,27.589,-23.108,4
0.5943,-0.44,0.3934,-0.5461,-0.1958,-0.6459,0.2978,0.254,1.098,-0.503,-3.923,27.589,-23.108,4
0.5817,-0.4361,0.3918,-0.5637,-0.0786,-0.7705,0.2846,0.259,0.215,-0.531,-3.923,27.589,-23.108,4
0.5628,-0.4343,0.3942,-0.5823,-0.0058,-0.9638,0.3383,-0.232,0.964,-0.26,-3.923,27.589,-23.108,4
0.5513,-0.4269,0.4082,-0.5891,-0.1484,-1.1308,0.4951,-0.385,1.058,-0.025,-2.273,23.689,-22.058,4
0.544,-0.4227,0.419,-0.5912,-0.3022,-1.2016,0.4619,-0.42,0.625,0.096,-2.273,23.689,-22.058,4
0.543,-0.4227,0.4212,-0.5906,-0.3071,-1.2207,0.4428,-0.403,0.275,0.135,-2.273,23.689,-22.058,4
0.5427,-0.4234,0.4226,-0.5894,-0.3017,-1.2187,0.4291,-0.376,0.003,0.176,-2.273,23.689,-22.058,4
0.5439,-0.4276,0.4247,-0.5838,-0.1826,-1.1425,0.3696,-0.383,-0.373,0.185,-2.273,23.689,-22.058,4
0.5445,-0.4293,0.4249,-0.5817,-0.1635,-1.103,0.3198,-0.346,-0.413,0.174,-2.273,23.689,-22.058,4
0.5455,-0.4312,0.4248,-0.5795,-0.1528,-1.0961,0.2875,-0.309,-0.525,0.193,-2.273,23.689,-22.058,4
0.5469,-0.4335,0.4244,-0.5767,-0.1738,-1.0922,0.2729,-0.329,-0.687,0.242,-2.273,23.689,-22.058,4
0.5487,-0.4363,0.4239,-0.5733,-0.1577,-1.0883,0.2636,-0.388,-0.855,0.301,-2.273,23.689,-22.058,4
0.5602,-0.4507,0.4178,-0.5553,-0.0546,-1.081,0.1586,-0.291,-1.503,0.456,-2.273,23.689,-22.058,4
0.5696,-0.4585,0.4117,-0.5438,-0.0112,-1.1181,0.0961,-0.11,-1.832,0.626,-4.523,22.189,-16.658,4
0.5754,-0.4623,0.4078,-0.5373,0.0209,-1.1372,0.0639,-0.015,-1.997,0.729,-4.523,22.189,-16.658,4
0.5949,-0.4715,0.3956,-0.5168,0.1621,-1.1064,0.0869,0.211,-1.95,0.924,-4.523,22.189,-16.658,4
0.6122,-0.476,0.3863,-0.4992,0.3007,-1.0283,0.1972,0.231,-1.355,0.981,-4.523,22.189,-16.658,4
0.6425,-0.459,0.3846,-0.4779,0.1313,-0.8398,0.2553,0.732,0.568,0.916,-4.523,22.189,-16.658,4
0.6444,-0.4537,0.3867,-0.4787,0.0629,-0.7456,0.2309,0.755,0.726,0.707,-4.523,22.189,-16.658,4
0.6462,-0.4426,0.3938,-0.481,-0.061,-0.5073,0.1718,0.131,0.653,0.409,-4.523,22.189,-16.658,4
0.6457,-0.4406,0.3968,-0.481,-0.0922,-0.499,0.123,-0.074,0.645,0.376,-8.273,15.439,-14.708,4
0.6451,-0.439,0.4,-0.4807,-0.1518,-0.5371,0.0668,-0.194,0.604,0.408,-8.273,15.439,-14.708,4
0.646,-0.4366,0.4047,-0.4777,-0.2456,-0.6474,-0.0175,-0.11,0.097,0.612,-8.273,15.439,-14.708,4
0.6636,-0.4304,0.4015,-0.4614,0.0214,-1.0078,0.3398,0.36,0.203,0.291,-8.273,15.439,-14.708,4
0.6585,-0.4154,0.4142,-0.4712,-0.1562,-1.2558,0.3935,0.036,0.641,-0.329,-10.373,15.439,-10.358,4
0.6548,-0.4135,0.415,-0.4774,-0.166,-1.2397,0.3525,0.247,0.511,-0.544,-10.373,15.439,-10.358,4
0.648,-0.4149,0.4129,-0.4872,-0.1289,-1.2319,0.3505,0.015,0.28,-0.863,-10.373,15.439,-10.358,4
0.6241,-0.4208,0.4134,-0.5122,-0.1801,-0.9062,0.3642,-0.353,0.465,-1.164,-10.373,15.439,-10.358,4
0.6198,-0.4244,0.4127,-0.515,-0.1406,-0.8276,0.3662,-0.554,0.142,-1.223,-10.373,15.439,-10.358,4
0.6116,-0.4339,0.4101,-0.519,-0.0136,-0.7294,0.3671,-0.656,-0.207,-1.186,-10.373,15.439,-10.358,4
0.6042,-0.452,0.3993,-0.5205,0.0888,-0.8505,0.3105,-0.351,-0.949,-0.569,-10.373,15.439,-10.358,4
0.6044,-0.4565,0.3961,-0.5189,0.1196,-0.9101,0.2939,-0.346,-1.029,-0.402,-10.373,15.439,-10.358,4
0.5977,-0.4654,0.3902,-0.5232,0.3012,-0.7768,0.1958,-0.094,0.706,-0.724,-16.823,14.539,-5.708,4
0.5937,-0.4644,0.3915,-0.5276,0.3125,-0.7353,0.1992,-0.045,1.007,-0.768,-16.823,14.539,-5.708,4
0.581,-0.4577,0.3983,-0.5423,0.1513,-0.7065,0.268,0.051,1.482,-0.611,-16.823,14.539,-5.708,4
0.558,-0.4358,0.4124,-0.5731,-0.0649,-0.7646,0.3408,0.233,1.115,-0.485,-16.823,14.539,-5.708,4
0.538,-0.4088,0.4223,-0.6041,-0.185,-0.935,0.4497,0.119,0.846,-0.391,-20.423,15.889,-4.208,4
0.5353,-0.4078,0.4233,-0.6064,-0.1953,-1.0073,0.434,-0.025,0.686,-0.416,-20.423,15.889,-4.208,4
0.5327,-0.4072,0.4243,-0.6084,-0.1865,-1.0527,0.4316,-0.104,0.57,-0.408,-20.423,15.889,-4.208,4
0.5302,-0.4069,0.4255,-0.6099,-0.1821,-1.0551,0.4213,-0.193,0.505,-0.365,-20.423,15.889,-4.208,4
0.525,-0.4064,0.4284,-0.6128,-0.1674,-1.039,0.3535,-0.262,0.568,-0.322,-20.423,15.889,-4.208,4
0.6237,-0.4748,0.3801,-0.4908,0.3085,-0.9584,0.2207,0.407,-0.846,1.632,-23.123,18.289,-3.608,4
0.6342,-0.4671,0.3824,-0.4829,0.2607,-0.9096,0.2739,0.634,-0.036,1.506,-23.123,18.289,-3.608,4
0.6413,-0.4556,0.3879,-0.4802,0.2143,-0.6918,0.2568,0.685,0.678,1.166,-24.473,26.539,-1.958,4
0.6463,-0.4388,0.3981,-0.4807,0.0761,-0.5195,0.1567,0.522,0.919,0.842,-24.473,26.539,-1.958,4
0.6633,-0.4221,0.4182,-0.4548,-0.1899,-0.9208,0.2387,-0.142,-0.921,0.562,-24.473,26.539,-1.958,4
0.6645,-0.423,0.4172,-0.453,-0.0498,-0.9458,0.3159,-0.093,-0.453,0.236,-24.473,26.539,-1.958,4
0.6645,-0.4231,0.4172,-0.453,0.0332,-0.9575,0.3364,-0.017,0.009,0.087,-24.473,26.539,-1.958,4
0.6642,-0.4221,0.4181,-0.4535,0.0717,-0.978,0.3222,0.067,0.322,0.15,-24.473,26.539,-1.958,4
0.6642,-0.4204,0.4196,-0.4537,0.0678,-1.0346,0.3149,0.099,0.401,0.35,-24.473,26.539,-1.958,4
0.665,-0.4185,0.4218,-0.4523,0.0346,-1.124,0.2963,0.011,0.291,0.615,-24.473,26.539,-1.958,4
0.67,-0.4139,0.4258,-0.4452,-0.1938,-1.3369,0.3989,0.252,0.051,-0.017,-13.523,32.089,-7.208,4
0.6669,-0.4129,0.4275,-0.4492,-0.1362,-1.1635,0.416,-0.093,0.582,-0.361,-13.523,32.089,-7.208,4
0.6642,-0.4133,0.4292,-0.4513,-0.122,-1.1801,0.3627,-0.261,0.628,-0.429,-13.523,32.089,-7.208,4
0.6617,-0.414,0.4304,-0.4532,-0.1235,-1.2128,0.31,-0.253,0.472,-0.459,-13.523,32.089,-7.208,4
0.6571,-0.4178,0.4255,-0.4608,-0.1625,-1.1967,0.3193,0.237,-0.087,-0.953,-13.523,32.089,-7.208,4
0.655,-0.4195,0.4229,-0.4648,-0.1376,-1.1391,0.35,0.188,0.023,-1.111,-13.523,32.089,-7.208,4
0.6519,-0.4214,0.421,-0.469,-0.0942,-1.124,0.3676,0.018,0.196,-1.2,-13.523,32.089,-7.208,4
0.6437,-0.426,0.4192,-0.4777,-0.1005,-1.1538,0.35,-0.253,0.443,-1.286,-13.523,32.089,-7.208,4
0.629,-0.4295,0.4188,-0.4943,-0.1083,-1.02,0.3193,0.046,0.894,-1.312,-13.523,32.089,-7.208,4
0.616,-0.4344,0.4161,-0.5085,0.0571,-0.7949,0.2993,-0.262,0.243,-1.301,-13.523,32.089,-7.208,4
0.5982,-0.4493,0.4089,-0.5224,0.1767,-1.0825,0.3657,-0.064,0.051,-0.657,-14.723,-31.197,-9.458,4
0.594,-0.4475,0.4067,-0.5304,0.1142,-1.0664,0.3657,0.307,0.677,-0.547,-14.723,-31.197,-9.458,4
0.5677,-0.4307,0.4131,-0.5668,0.0659,-0.6708,0.2426,0.452,1.525,-0.8,-14.723,-31.197,-9.458,4
0.5595,-0.4221,0.416,-0.5792,-0.0297,-0.6772,0.2094,0.504,1.587,-0.697,-14.723,-31.197,-9.458,4
0.5516,-0.4127,0.419,-0.5912,-0.0493,-0.7065,0.2036,0.539,1.594,-0.613,-14.723,-31.197,-9.458,4
0.5477,-0.4082,0.4206,-0.597,-0.0302,-0.7333,0.2373,0.494,1.568,-0.615,-14.723,-31.197,-9.458,4
0.5294,-0.3851,0.4277,-0.6232,-0.2407,-0.7548,0.4086,0.494,1.306,-0.437,-15.173,-28.647,-12.908,4
0.5266,-0.381,0.429,-0.6271,-0.2578,-0.7895,0.4301,0.346,1.202,-0.426,-15.173,-28.647,-12.908,4
0.5209,-0.3745,0.4318,-0.6338,-0.2666,-0.8632,0.4033,0.185,0.996,-0.432,-15.173,-28.647,-12.908,4
0.5157,-0.3692,0.4341,-0.6396,-0.269,-0.8574,0.3901,0.172,0.847,-0.437,-15.173,-28.647,-12.908,4
0.509,-0.3644,0.4371,-0.6456,-0.3618,-0.9711,0.3691,-0.094,0.243,-0.249,-15.173,-28.647,-12.908,4
0.5064,-0.3687,0.4362,-0.6459,-0.2807,-1.0473,0.4033,-0.18,-0.342,-0.277,-15.173,-28.647,-12.908,4
0.507,-0.3749,0.4337,-0.6435,-0.2729,-1.1381,0.4775,-0.282,-0.743,-0.179,-15.173,-28.647,-12.908,4
0.5095,-0.3863,0.4311,-0.6365,-0.1611,-1.225,0.4453,-0.492,-0.872,0.006,-15.173,-28.647,-12.908,4
0.5105,-0.3901,0.4308,-0.6336,-0.1035,-1.2275,0.4453,-0.542,-0.85,0.07,-7.692,-26.187,-14.49,4
0.5115,-0.3937,0.4306,-0.6307,-0.0815,-1.1992,0.4433,-0.525,-0.813,0.112,-7.692,-26.187,-14.49,4
0.5147,-0.4004,0.43,-0.6243,-0.1127,-1.1987,0.4199,-0.474,-0.929,0.268,-7.692,-26.187,-14.49,4
0.5311,-0.4217,0.4247,-0.5996,-0.0644,-1.1855,0.1899,-0.395,-1.666,0.58,-7.692,-26.187,-14.49,4
0.5413,-0.4318,0.419,-0.5872,-0.0112,-1.0595,0.1259,-0.248,-2.025,0.612,-7.692,-26.187,-14.49,4
0.606,-0.4663,0.3883,-0.5142,0.3837,-0.9233,0.2597,0.377,-0.488,1.356,-1.975,-26.433,-15.497,4
0.6141,-0.4586,0.3917,-0.5089,0.3266,-0.7871,0.2978,0.453,0.28,1.362,-1.975,-26.433,-15.497,4
0.6251,-0.4251,0.4155,-0.5057,-0.039,-0.6826,0.1342,0.497,1.308,1.311,-1.975,-26.433,-15.497,4
0.6279,-0.4118,0.4262,-0.5043,-0.2182,-0.7075,0.0878,0.312,1.139,1.261,-1.975,-26.433,-15.497,4
0.6293,-0.4064,0.4308,-0.503,-0.3027,-0.7368,0.0781,0.225,0.929,1.18,-1.975,-26.433,-15.497,4
0.6423,-0.4048,0.4381,-0.481,-0.1557,-1.0175,0.1845,-0.508,-0.656,0.307,11.174,-32.329,-22.976,4
0.6244,-0.4363,0.4286,-0.4856,-0.0063,-0.9658,0.2387,-0.608,-0.304,-1.077,12.582,28.441,-19.077,4
0.6208,-0.4413,0.4268,-0.4873,0.0356,-0.9233,0.2744,-0.657,-0.245,-1.144,12.582,28.441,-19.077,4
0.6129,-0.4499,0.4238,-0.4921,0.1274,-0.8706,0.2929,-0.515,0.011,-1.132,12.582,28.441,-19.077,4
0.6053,-0.4595,0.4177,-0.4978,0.1713,-0.8901,0.3417,-0.249,-0.326,-0.746,12.582,28.441,-19.077,4
0.6045,-0.4622,0.4153,-0.4984,0.1625,-0.9355,0.3662,-0.175,-0.448,-0.536,12.582,28.441,-19.077,4
0.6045,-0.4656,0.4107,-0.4989,0.0688,-1.0966,0.2685,0.162,0.023,-0.143,12.582,28.441,-19.077,4
0.6036,-0.465,0.4101,-0.5011,0.082,-1.0219,0.2539,0.225,0.297,-0.32,12.582,28.441,-19.077,4
0.6015,-0.4639,0.41,-0.5047,0.1196,-0.9306,0.2265,0.262,0.644,-0.539,12.582,28.441,-19.077,4
0.5645,-0.417,0.4194,-0.5756,-0.121,-0.8706,0.3862,0.394,0.862,-0.308,9.016,26.745,-14.342,4
0.5606,-0.4129,0.4208,-0.5813,-0.1132,-0.8906,0.4013,0.118,0.698,-0.393,9.016,26.745,-14.342,4
0.5582,-0.4114,0.4218,-0.584,-0.1181,-0.8959,0.4106,0.036,0.704,-0.437,9.016,26.745,-14.342,4
0.547,-0.4058,0.4289,-0.5933,-0.2241,-0.9843,0.3642,-0.191,0.838,-0.333,9.016,26.745,-14.342,4
0.5316,-0.3967,0.444,-0.6022,-0.3364,-1.2797,0.3652,-0.247,0.245,-0.038,9.016,22.095,-7.742,4
0.5264,-0.4014,0.4477,-0.6009,-0.1787,-1.1372,0.3647,-0.466,-0.06,-0.265,9.016,22.095,-7.742,4
0.5253,-0.4041,0.4478,-0.6001,-0.1557,-1.1186,0.3422,-0.485,-0.285,-0.284,9.016,22.095,-7.742,4
0.5246,-0.4111,0.4474,-0.5962,-0.1347,-1.1279,0.2817,-0.59,-0.693,-0.122,9.016,22.095,-7.742,4
0.5252,-0.4151,0.4469,-0.5932,-0.1123,-1.1313,0.2402,-0.602,-0.844,-0.001,9.016,22.095,-7.742,4
0.5265,-0.419,0.4462,-0.5899,-0.1098,-1.1337,0.2099,-0.532,-0.954,0.087,9.016,22.095,-7.742,4
0.5284,-0.423,0.445,-0.5862,-0.1088,-1.1518,0.1557,-0.459,-1.11,0.172,9.016,22.095,-7.742,4
0.5313,-0.4273,0.4432,-0.5818,-0.1166,-1.1582,0.1054,-0.39,-1.383,0.268,9.016,22.095,-7.742,4
0.5395,-0.4374,0.4367,-0.5716,0.0312,-1.0732,0.1162,-0.183,-1.876,0.278,9.016,22.095,-7.742,4
0.6259,-0.4198,0.4273,-0.4992,-0.1904,-0.831,0.0795,-0.063,-0.669,0.521,0.316,9.045,-0.542,4
0.6325,-0.4198,0.4268,-0.4914,-0.0537,-0.9443,0.2016,0.178,-0.052,0.373,0.316,9.045,-0.542,4
0.6334,-0.4177,0.4276,-0.4912,-0.0205,-0.977,0.2402,0.275,0.217,0.409,0.316,9.045,-0.542,4
0.6341,-0.415,0.4291,-0.4913,-0.0112,-1.0195,0.2758,0.276,0.438,0.474,0.316,9.045,-0.542,4
0.6346,-0.4065,0.4373,-0.4905,-0.0717,-1.1679,0.2836,-0.016,0.599,0.564,0.316,9.045,-0.542,4
0.6213,-0.4026,0.449,-0.5001,-0.1464,-1.1318,0.3085,0.132,0.085,-0.474,-6.583,3.795,4.257,4
0.6158,-0.4036,0.4468,-0.508,-0.1474,-1.0717,0.2939,0.097,0.461,-0.706,-6.583,3.795,4.257,4
0.5847,-0.4431,0.4231,-0.5316,0.1386,-1.0971,0.3208,-0.452,-1.067,-0.706,-6.583,3.795,4.257,4
0.5785,-0.4534,0.4138,-0.537,0.309,-0.9311,0.2539,0.068,0.415,-0.824,-16.183,4.095,9.357,4
0.5747,-0.453,0.4135,-0.5417,0.309,-0.8583,0.225,0.122,0.789,-0.873,-16.183,4.095,9.357,4
0.5709,-0.4514,0.4136,-0.5468,0.2724,-0.8037,0.225,0.256,1.004,-0.877,-16.183,4.095,9.357,4
0.564,-0.4461,0.4135,-0.5583,0.1508,-0.7363,0.2885,0.547,1.157,-0.83,-16.183,4.095,9.357,4
0.5311,-0.4067,0.4115,-0.6188,-0.0048,-0.875,0.3154,0.314,0.961,-0.495,-16.183,4.095,9.357,4
0.528,-0.4032,0.413,-0.6228,-0.0151,-0.8696,0.2709,0.277,1.213,-0.442,-16.183,4.095,9.357,4
0.5246,-0.399,0.4152,-0.6269,-0.0351,-0.8686,0.2456,0.27,1.404,-0.375,-16.183,4.095,9.357,4
0.5212,-0.3944,0.4179,-0.6308,-0.06,-0.9038,0.2431,0.228,1.476,-0.286,-20.233,1.395,11.157,4
0.5145,-0.3851,0.4244,-0.6377,-0.1494,-0.9565,0.3134,0.065,1.519,-0.19,-20.233,1.395,11.157,4
0.5108,-0.3806,0.4283,-0.6408,-0.2133,-0.9565,0.3461,-0.042,1.548,-0.198,-20.233,1.395,11.157,4
0.5035,-0.373,0.4362,-0.6457,-0.311,-0.9658,0.3959,-0.254,1.3,-0.221,-20.233,1.395,11.157,4
0.4936,-0.3716,0.4503,-0.6444,-0.2905,-1.0839,0.3544,-0.401,-0.485,0.124,-20.233,1.395,11.157,4
0.5033,-0.388,0.4476,-0.629,-0.1801,-1.2202,0.1875,-0.586,-1.528,0.417,-20.233,1.395,11.157,4
0.5159,-0.4053,0.4418,-0.6117,-0.0014,-1.2578,0.1743,-0.516,-1.878,0.457,-28.483,0.945,14.907,4
0.547,-0.439,0.4239,-0.5728,0.1123,-1.0351,0.0874,-0.288,-2.124,0.711,-28.483,0.945,14.907,4
0.5915,-0.4519,0.416,-0.5222,0.2343,-0.8652,0.2856,0.107,-0.199,1.487,-28.483,0.945,14.907,4
0.5954,-0.4483,0.4189,-0.5186,0.2089,-0.8374,0.269,0.155,0.089,1.519,-28.483,0.945,14.907,4
0.6064,-0.4329,0.43,-0.5097,0.0502,-0.7529,0.1635,0.383,0.483,1.57,-28.483,0.945,14.907,4
0.6245,-0.4076,0.441,-0.4992,-0.2558,-0.7011,0.0722,0.563,0.072,0.974,31.503,5.895,23.007,4
0.6274,-0.4048,0.4412,-0.4976,-0.2504,-0.6865,0.0942,0.449,-0.063,0.784,31.503,5.895,23.007,4
0.6297,-0.4029,0.4413,-0.4961,-0.2368,-0.6933,0.1074,0.287,-0.133,0.614,31.503,5.895,23.007,4
0.6373,-0.3857,0.4558,-0.4869,-0.1865,-1.0688,0.2407,0.242,0.548,0.627,31.503,5.895,23.007,4
0.6379,-0.3825,0.4581,-0.4865,-0.2084,-1.1035,0.2495,0.193,0.544,0.601,31.503,5.895,23.007,4
0.6307,-0.3917,0.4609,-0.486,-0.2607,-1.1274,0.2666,-0.352,-0.62,-0.573,31.653,12.495,20.607,4
0.6213,-0.4121,0.4535,-0.4882,-0.1069,-1.0336,0.3032,-0.471,0.078,-0.744,31.653,12.495,20.607,4
0.618,-0.4152,0.4533,-0.4899,-0.1083,-0.9848,0.3295,-0.54,0.116,-0.839,31.653,12.495,20.607,4
0.6145,-0.4188,0.4529,-0.4916,-0.0913,-0.9453,0.35,-0.591,0.062,-0.934,31.653,12.495,20.607,4
0.6002,-0.4439,0.4421,-0.4969,0.0742,-1.0371,0.3295,-0.328,-0.827,-0.6,24.753,14.895,25.707,4
0.6023,-0.4543,0.4336,-0.4926,0.0673,-1.0903,0.312,-0.149,-0.838,-0.265,24.753,14.895,25.707,4
0.6026,-0.4567,0.431,-0.4923,0.0688,-1.0571,0.2778,-0.046,-0.602,-0.348,24.753,14.895,25.707,4
0.6019,-0.4583,0.4287,-0.4937,0.122,-0.9672,0.2734,0.073,-0.232,-0.524,24.753,14.895,25.707,4
0.5962,-0.4594,0.4278,-0.5003,0.2065,-0.8247,0.1918,-0.08,0.664,-0.804,24.753,14.895,25.707,4
0.5878,-0.4589,0.4304,-0.5084,0.1547,-0.7778,0.1376,-0.121,0.987,-0.764,24.753,14.895,25.707,4
0.5563,-0.418,0.4444,-0.564,-0.2016,-0.9272,0.3212,0.339,0.489,-0.091,19.053,16.245,26.157,4
0.555,-0.4127,0.4472,-0.567,-0.2514,-1.0034,0.3481,-0.034,0.38,0.032,19.053,16.245,26.157,4
0.5503,-0.4128,0.4547,-0.5655,-0.2836,-1.1992,0.3476,-0.253,-0.136,0.072,19.053,16.245,26.157,4
0.5504,-0.414,0.4547,-0.5645,-0.2666,-1.1943,0.3579,-0.224,-0.226,0.021,19.053,16.245,26.157,4
0.5502,-0.4185,0.4546,-0.5615,-0.1777,-1.1699,0.2817,-0.31,-0.338,-0.05,16.953,22.095,22.707,4
0.5507,-0.4209,0.4541,-0.5597,-0.1567,-1.1831,0.2314,-0.346,-0.554,-0.001,16.953,22.095,22.707,4
0.5534,-0.4272,0.4514,-0.5542,-0.0839,-1.2319,0.2299,-0.345,-0.952,0.073,16.953,22.095,22.707,4
0.5571,-0.4337,0.4481,-0.5483,-0.0102,-1.2709,0.2094,-0.277,-0.97,0.112,16.953,22.095,22.707,4
0.5746,-0.4466,0.4336,-0.5312,0.0253,-1.0092,0.0976,0.227,-0.967,0.467,16.953,22.095,22.707,4
0.5787,-0.4476,0.4313,-0.5278,0.0273,-1.0097,0.1025,0.258,-1.079,0.561,16.953,22.095,22.707,4
0.5878,-0.4495,0.4261,-0.5203,0.059,-1.0122,0.1147,0.327,-1.163,0.673,16.953,22.095,22.707,4
0.5966,-0.4503,0.4214,-0.5132,0.1054,-0.9882,0.1591,0.338,-0.965,0.71,17.853,31.095,23.607,4
0.6191,-0.4292,0.4234,-0.5031,0.038,-0.7885,0.1567,0.535,0.433,0.694,17.853,31.095,23.607,4
0.6267,-0.4121,0.4312,-0.5013,-0.1953,-0.7314,0.0742,0.145,0.106,0.377,17.853,31.095,23.607,4
0.6175,-0.3924,0.457,-0.5056,-0.229,-1.1196,0.3334,-0.213,0.231,-0.314,27.903,-24.091,13.857,4
0.6157,-0.3933,0.4577,-0.5065,-0.2216,-1.1435,0.332,-0.253,0.232,-0.341,27.903,-24.091,13.857,4
0.6139,-0.3943,0.4583,-0.5074,-0.229,-1.166,0.3417,-0.243,0.213,-0.354,27.903,-24.091,13.857,4
0.611,-0.3963,0.4582,-0.5093,-0.2216,-1.1586,0.3432,-0.113,0.065,-0.37,27.903,-24.091,13.857,4
0.6091,-0.3982,0.4569,-0.5114,-0.1723,-1.1464,0.3188,-0.006,-0.019,-0.366,27.903,-24.091,13.857,4
0.6083,-0.399,0.4562,-0.5124,-0.166,-1.1635,0.29,0.004,-0.017,-0.355,30.303,-18.991,10.107,4
0.5771,-0.3999,0.4588,-0.5444,-0.0917,-0.8784,0.3994,-0.019,0.292,-0.872,30.303,-18.991,10.107,4
0.5752,-0.4014,0.4572,-0.5467,-0.0756,-0.8803,0.4257,0.001,0.018,-0.761,30.303,-18.991,10.107,4
0.5741,-0.403,0.4553,-0.5482,-0.0673,-0.8876,0.4594,-0.002,-0.175,-0.606,30.303,-18.991,10.107,4
0.5746,-0.4083,0.4501,-0.548,-0.0541,-1.0117,0.3715,-0.114,-0.523,-0.124,30.303,-18.991,10.107,4
0.5772,-0.4125,0.4466,-0.545,-0.0209,-1.1235,0.249,-0.022,-0.753,-0.017,30.303,-18.991,10.107,4
0.5788,-0.4142,0.4439,-0.5442,0.0327,-1.1123,0.2597,0.158,-0.712,-0.12,30.303,-18.991,10.107,4
0.5785,-0.4156,0.4402,-0.5465,0.1279,-1.0068,0.2861,0.205,0.05,-0.425,26.703,-18.841,9.207,4
0.567,-0.4123,0.4417,-0.5597,0.0058,-0.7861,0.2402,0.11,0.736,-0.571,26.703,-18.841,9.207,4
0.5646,-0.4113,0.4418,-0.5627,-0.038,-0.7885,0.2719,0.182,0.597,-0.518,26.703,-18.841,9.207,4
0.5611,-0.4087,0.4416,-0.5683,-0.1157,-0.8041,0.3295,0.265,0.533,-0.382,26.703,-18.841,9.207,4
0.5597,-0.4073,0.4418,-0.5705,-0.1459,-0.8261,0.3212,0.237,0.497,-0.289,26.703,-18.841,9.207,4
0.5587,-0.4059,0.442,-0.5723,-0.187,-0.8398,0.3037,0.191,0.418,-0.221,26.703,-18.841,9.207,4
0.5567,-0.4073,0.4313,-0.5813,-0.121,-0.9184,0.3281,-0.036,-0.049,-0.219,24.303,-18.991,2.757,4
0.5531,-0.4108,0.4303,-0.583,-0.1323,-0.9575,0.3989,-0.189,-0.077,-0.312,24.303,-18.991,2.757,4
0.5522,-0.4224,0.4276,-0.5775,0.0117,-0.8999,0.288,-0.143,-0.299,-0.002,24.303,-18.991,2.757,4
0.5531,-0.4242,0.4275,-0.5754,-0.0136,-0.9101,0.2895,-0.186,-0.223,0.113,24.303,-18.991,2.757,4
0.5537,-0.4248,0.4279,-0.5742,-0.0346,-0.935,0.2924,-0.18,-0.191,0.169,24.303,-18.991,2.757,4
0.5544,-0.4253,0.4283,-0.5728,-0.0356,-0.9682,0.2929,-0.176,-0.192,0.214,24.303,-18.991,2.757,4
0.5552,-0.4258,0.4288,-0.5713,-0.039,-1.018,0.2924,-0.183,-0.211,0.251,24.303,-18.991,2.757,4
0.556,-0.4264,0.4294,-0.5697,-0.0244,-1.0605,0.3046,-0.194,-0.219,0.275,23.853,-12.241,5.907,4
0.5573,-0.4267,0.4315,-0.5665,-0.0004,-1.059,0.3574,-0.191,0.086,0.214,23.853,-12.241,5.907,4
0.5579,-0.426,0.4401,-0.5599,-0.1528,-1.2373,0.2651,-0.286,-0.167,0.395,23.853,-12.241,5.907,4
0.559,-0.4266,0.4409,-0.5576,-0.1572,-1.27,0.2412,-0.264,-0.275,0.41,23.853,-12.241,5.907,4
0.5605,-0.4273,0.4412,-0.5553,-0.1342,-1.2675,0.2167,-0.2,-0.393,0.409,23.853,-12.241,5.907,4
0.5877,-0.4477,0.4209,-0.5261,0.2382,-0.9985,0.2124,0.152,-0.62,0.457,30.303,-4.141,1.407,4
0.5903,-0.4476,0.4201,-0.524,0.2255,-0.9628,0.2124,0.178,-0.461,0.559,30.303,-4.141,1.407,4
0.5927,-0.4467,0.4199,-0.5221,0.2148,-0.9365,0.2114,0.192,-0.294,0.641,30.303,-4.141,1.407,4
0.595,-0.4455,0.4203,-0.5203,0.1806,-0.9174,0.1884,0.189,-0.171,0.704,30.303,-4.141,1.407,4
0.5974,-0.4438,0.421,-0.5184,0.1596,-0.9233,0.1826,0.197,-0.088,0.769,30.303,-4.141,1.407,4
0.6018,-0.4393,0.4241,-0.5145,0.1074,-0.9116,0.1274,0.191,0.122,0.914,30.303,-4.141,1.407,4
0.6042,-0.4365,0.426,-0.5126,0.0722,-0.9062,0.1113,0.237,0.171,0.962,30.303,-4.141,1.407,4
0.6153,-0.4208,0.4341,-0.5057,-0.0903,-0.9067,0.1665,0.349,0.278,0.71,30.303,-4.141,1.407,4
0.6183,-0.4154,0.4361,-0.5046,-0.1191,-0.874,0.1821,0.338,0.182,0.503,30.303,-4.141,1.407,4
0.6299,-0.4191,0.4307,-0.4919,-0.145,-1.0332,0.1357,-0.089,-0.739,0.083,-19.783,1.709,-9.542,4
0.6324,-0.4238,0.4267,-0.4881,-0.0654,-1.0668,0.1645,-0.132,-0.782,-0.001,-19.783,1.709,-9.542,4
0.6351,-0.4378,0.4173,-0.4802,0.0019,-1.0595,0.2397,-0.174,-0.386,-0.124,-19.783,1.709,-9.542,4
0.6349,-0.4416,0.4149,-0.479,0.0122,-1.0253,0.226,-0.161,-0.381,-0.177,-19.783,1.709,-9.542,4
0.6344,-0.4454,0.4122,-0.4786,0.0356,-1.0214,0.2094,-0.131,-0.333,-0.231,-19.783,1.709,-9.542,4
0.634,-0.4472,0.4112,-0.4783,0.0336,-1.0258,0.2021,-0.166,-0.289,-0.218,-19.783,1.709,-9.542,4
0.6315,-0.4516,0.4086,-0.4797,0.0229,-0.9702,0.164,0.025,-0.012,-0.203,-19.033,2.459,-11.042,4
0.6297,-0.4526,0.4055,-0.4837,0.0004,-0.9555,0.1772,0.104,0.083,-0.184,-19.033,2.459,-11.042,4
0.6207,-0.4467,0.4087,-0.498,-0.0644,-1.1113,0.3818,0.042,0.419,-0.467,-19.783,2.759,-11.342,4
0.6182,-0.447,0.409,-0.5006,-0.062,-1.0483,0.4121,-0.08,0.466,-0.584,-19.783,2.759,-11.342,4
0.6125,-0.4486,0.4094,-0.5058,-0.0556,-0.9555,0.3984,-0.247,0.376,-0.696,-19.783,2.759,-11.342,4
0.6099,-0.4499,0.4091,-0.508,-0.0351,-0.9335,0.3857,-0.226,0.259,-0.681,-19.783,2.759,-11.342,4
0.6063,-0.4524,0.4075,-0.5114,-0.0537,-0.9184,0.3066,-0.097,0.005,-0.548,-19.783,2.759,-11.342,4
0.6001,-0.4568,0.4029,-0.5183,-0.0595,-1.06,0.2929,0.159,0.197,0.042,-25.333,0.809,-6.992,4
0.5996,-0.4558,0.4035,-0.5194,-0.0366,-1.0493,0.3266,0.087,0.323,-0.055,-25.333,0.809,-6.992,4
0.5984,-0.455,0.4043,-0.5208,-0.0112,-1.0283,0.3549,-0.009,0.424,-0.155,-25.333,0.809,-6.992,4
0.5968,-0.4544,0.4053,-0.5223,-0.0083,-1.0019,0.3554,-0.095,0.466,-0.225,-25.333,0.809,-6.992,4
0.5914,-0.454,0.4072,-0.5273,-0.02,-0.935,0.3613,-0.089,0.34,-0.354,-25.333,0.809,-6.992,4
0.59,-0.4541,0.4073,-0.5287,-0.0312,-0.9331,0.3496,-0.062,0.252,-0.333,-25.333,0.809,-6.992,4
0.5891,-0.4542,0.4073,-0.5297,-0.0761,-0.9213,0.3491,-0.056,0.139,-0.262,-25.333,0.809,-6.992,4
0.5887,-0.4546,0.407,-0.5301,-0.1,-0.9111,0.3247,-0.036,-0.051,-0.057,-25.333,0.809,-6.992,4
0.589,-0.4546,0.4068,-0.5298,-0.0756,-0.9243,0.3095,0.012,-0.09,0.015,-25.333,0.809,-6.992,4
0.5896,-0.4544,0.4066,-0.5296,-0.0473,-0.9423,0.2998,0.062,-0.078,0.071,-25.333,0.809,-6.992,4
0.5902,-0.454,0.4065,-0.5293,-0.0239,-0.9458,0.2768,0.077,-0.052,0.104,-25.333,0.809,-6.992,4
0.5914,-0.4531,0.4061,-0.529,0.0068,-0.9516,0.2988,0.132,-0.03,0.099,-25.333,0.809,-6.992,4
0.5925,-0.4517,0.4056,-0.5294,-0.0039,-0.9794,0.3461,0.156,0.037,0.066,-25.333,0.809,-6.992,4
0.5929,-0.4507,0.4055,-0.5298,-0.0385,-1.0102,0.3754,0.163,0.083,0.062,-25.333,0.809,-6.992,4
0.5931,-0.4499,0.4056,-0.5302,-0.0717,-1.0395,0.392,0.145,0.119,0.054,-25.333,0.809,-6.992,4
0.5932,-0.4492,0.4057,-0.5305,-0.103,-1.0546,0.3989,0.107,0.107,0.033,-26.683,1.109,-7.142,4
0.593,-0.4503,0.4048,-0.5305,-0.1093,-1.0805,0.4287,-0.105,-0.177,-0.123,-26.683,1.109,-7.142,4
0.5927,-0.452,0.404,-0.5301,-0.0937,-1.061,0.436,-0.173,-0.297,-0.197,-26.683,1.109,-7.142,4
0.5924,-0.4539,0.4029,-0.5296,-0.0522,-1.0258,0.4252,-0.191,-0.371,-0.24,-26.683,1.109,-7.142,4
0.6217,-0.6645,0.1439,-0.3887,0.3071,-0.9228,0.1411,-0.194,0.087,-0.104,-28.154,-26.117,-3.746,5
0.62,-0.6656,0.1446,-0.3891,0.2753,-0.9497,0.121,-0.239,0.035,-0.081,-28.154,-26.117,-3.746,5
0.6193,-0.6663,0.1448,-0.3892,0.2695,-0.9555,0.1044,-0.208,-0.014,-0.096,-28.154,-26.117,-3.746,5
0.6186,-0.6669,0.1446,-0.3891,0.2636,-0.9619,0.1074,-0.176,-0.075,-0.115,-28.154,-26.117,-3.746,5
0.6181,-0.6676,0.1442,-0.3889,0.267,-0.9702,0.1059,-0.134,-0.112,-0.124,-28.154,-26.117,-3.746,5
0.6165,-0.6704,0.1421,-0.3876,0.3085,-0.9614,0.1118,-0.132,-0.155,-0.042,-26.204,-25.967,-2.396,5
0.616,-0.6717,0.1412,-0.3863,0.3071,-0.9594,0.0947,-0.104,-0.212,-0.04,-26.204,-25.967,-2.396,5
0.6159,-0.6723,0.1406,-0.3857,0.3144,-0.9653,0.0839,-0.071,-0.215,-0.043,-26.204,-25.967,-2.396,5
0.6151,-0.674,0.1387,-0.3847,0.3261,-0.9912,0.0698,-0.077,-0.154,-0.12,-26.204,-25.967,-2.396,5
0.6148,-0.6746,0.1379,-0.3843,0.3266,-1.0009,0.062,-0.068,-0.206,-0.106,-26.204,-25.967,-2.396,5
0.6152,-0.6769,0.1341,-0.3811,0.3496,-1.0322,0.0209,0.029,-0.449,-0.062,-26.204,-25.967,-2.396,5
0.6166,-0.6791,0.128,-0.377,0.3764,-0.9838,-0.0224,0.153,-0.514,-0.118,-26.204,-25.967,-2.396,5
0.6171,-0.6797,0.1258,-0.3757,0.3735,-0.9633,-0.0288,0.142,-0.51,-0.112,-26.204,-25.967,-2.396,5
0.6175,-0.6805,0.1237,-0.3744,0.3759,-0.9321,-0.0288,0.115,-0.521,-0.102,-26.204,-25.967,-2.396,5
0.6179,-0.6813,0.1217,-0.3729,0.3935,-0.9252,-0.0268,0.087,-0.528,-0.076,-26.204,-25.967,-2.396,5
0.6182,-0.6821,0.1199,-0.3714,0.4106,-0.9155,0.0014,0.068,-0.506,-0.034,-26.204,-25.967,-2.396,5
0.6186,-0.6827,0.1184,-0.3701,0.4404,-0.9218,0.0126,0.074,-0.408,0.004,-26.204,-25.967,-2.396,5
0.6196,-0.6826,0.1164,-0.3693,0.4682,-0.9277,0.0585,0.103,0.014,-0.006,-29.654,-27.617,-1.496,5
0.6196,-0.6813,0.1167,-0.3717,0.4165,-0.913,0.0136,0.047,0.174,-0.065,-29.654,-27.617,-1.496,5
0.6194,-0.6812,0.1167,-0.3723,0.3955,-0.9184,-0.02,0.017,0.111,-0.072,-29.654,-27.617,-1.496,5
0.6191,-0.6813,0.1166,-0.3725,0.3715,-0.9335,-0.0449,-0.002,0.021,-0.062,-29.654,-27.617,-1.496,5
0.619,-0.6816,0.1163,-0.3723,0.3442,-0.936,-0.0522,-0.008,-0.063,-0.035,-29.654,-27.617,-1.496,5
0.6189,-0.6819,0.1161,-0.3718,0.3291,-0.9501,-0.0644,-0.001,-0.116,-0.006,-29.654,-27.617,-1.496,5
0.6189,-0.6823,0.1159,-0.3712,0.3281,-0.9619,-0.0644,-0.013,-0.119,0.013,-29.654,-27.617,-1.496,5
0.6186,-0.6832,0.116,-0.37,0.352,-0.9653,-0.0283,-0.049,-0.028,0.019,-29.654,-27.617,-1.496,5
0.6177,-0.6844,0.1156,-0.3695,0.3901,-0.9243,0.0249,-0.035,-0.119,-0.035,-29.654,-27.617,-1.496,5
0.6177,-0.6848,0.1148,-0.3689,0.3896,-0.9145,0.0126,0.002,-0.216,-0.033,-29.654,-27.617,-1.496,5
0.6193,-0.6861,0.1108,-0.3652,0.3925,-0.934,-0.019,0.091,-0.266,0.023,-29.054,-27.467,-1.046,5
0.6196,-0.6863,0.1101,-0.3645,0.3994,-0.9287,-0.0239,0.08,-0.198,0.014,-29.054,-27.467,-1.046,5
0.6198,-0.6863,0.1096,-0.3642,0.3955,-0.9184,-0.017,0.072,-0.109,0.015,-29.054,-27.467,-1.046,5
0.6199,-0.6863,0.1096,-0.364,0.3959,-0.9121,-0.0273,0.016,0.015,0.033,-29.054,-27.467,-1.046,5
0.6201,-0.686,0.1107,-0.364,0.4101,-0.9531,0.0185,0.012,0.059,0.08,-29.054,-27.467,-1.046,5
0.6202,-0.6857,0.1112,-0.3641,0.4096,-0.9697,0.0205,0.025,0.1,0.089,-29.054,-27.467,-1.046,5
0.6203,-0.6854,0.1119,-0.3643,0.4052,-0.9765,0.0122,0.019,0.136,0.095,-29.054,-27.467,-1.046,5
0.6192,-0.6837,0.1157,-0.3682,0.3486,-0.8188,0.0341,-0.047,0.142,-0.088,-29.054,-27.467,-1.046,5
0.6185,-0.6841,0.1149,-0.3688,0.3564,-0.7753,0.059,-0.027,-0.057,-0.072,-29.654,-27.617,-1.946,5
0.6183,-0.6843,0.1147,-0.3688,0.3627,-0.7792,0.0742,-0.043,-0.036,-0.055,-29.654,-27.617,-1.946,5
0.618,-0.6845,0.1148,-0.369,0.3637,-0.7792,0.0883,-0.064,0.045,-0.03,-29.654,-27.617,-1.946,5
0.6176,-0.6844,0.1154,-0.3696,0.3632,-0.7895,0.1103,-0.088,0.17,-0.023,-29.654,-27.617,-1.946,5
0.617,-0.6842,0.1166,-0.3707,0.3642,-0.7939,0.1298,-0.132,0.331,-0.01,-29.654,-27.617,-1.946,5
0.6161,-0.6839,0.1184,-0.3722,0.3525,-0.8017,0.143,-0.17,0.497,0.002,-29.654,-27.617,-1.946,5
0.6152,-0.6831,0.1206,-0.3744,0.3476,-0.8178,0.1499,-0.193,0.653,0.0,-29.654,-27.617,-1.946,5
0.6133,-0.6813,0.1258,-0.3791,0.2875,-0.8779,0.1352,-0.197,0.735,0.011,-29.654,-27.617,-1.946,5
0.6125,-0.6806,0.1282,-0.3807,0.2617,-0.9599,0.1049,-0.184,0.6,0.049,-29.654,-27.617,-1.946,5
0.6084,-0.683,0.1271,-0.3834,0.2783,-0.9306,0.1142,-0.061,-0.373,-0.385,-29.654,-27.617,-1.946,5
0.6072,-0.6865,0.1207,-0.3811,0.2968,-0.8198,0.1474,-0.105,-0.802,-0.407,-28.754,-27.167,-0.596,5
0.6176,-0.6926,0.0909,-0.3611,0.2114,-0.9946,-0.0068,0.697,-0.998,0.043,-28.754,-27.167,-0.596,5
0.6273,-0.6904,0.0816,-0.3507,0.2236,-1.0141,-0.0122,0.716,-0.79,0.234,-28.754,-27.167,-0.596,5
0.6302,-0.6894,0.0798,-0.3479,0.2631,-1.0341,0.0263,0.633,-0.608,0.283,-28.754,-27.167,-0.596,5
0.6356,-0.6865,0.0779,-0.3442,0.4169,-1.122,0.0917,0.624,-0.225,0.315,-28.754,-27.167,-0.596,5
0.6382,-0.6843,0.0777,-0.3438,0.4702,-1.1542,0.124,0.681,0.024,0.24,-28.754,-27.167,-0.596,5
0.6424,-0.6786,0.0795,-0.347,0.4497,-1.1376,0.1645,0.582,0.696,0.079,-28.754,-27.167,-0.596,5
0.6437,-0.6754,0.0821,-0.3502,0.4091,-1.1323,0.1806,0.48,0.996,0.096,-28.754,-27.167,-0.596,5
0.6448,-0.672,0.0858,-0.3538,0.3769,-1.1176,0.1782,0.404,1.22,0.152,-28.754,-27.167,-0.596,5
0.6456,-0.6685,0.0899,-0.3578,0.3461,-1.0942,0.1728,0.34,1.351,0.173,-28.754,-27.167,-0.596,5
0.6462,-0.665,0.0944,-0.362,0.3154,-1.0634,0.1796,0.301,1.42,0.156,-30.554,-29.417,-4.946,5
0.6468,-0.6614,0.099,-0.3664,0.2988,-1.0483,0.1972,0.31,1.478,0.168,-30.554,-29.417,-4.946,5
0.6478,-0.6572,0.104,-0.3707,0.2768,-1.0361,0.1977,0.37,1.536,0.214,-30.554,-29.417,-4.946,5
0.6491,-0.6528,0.1091,-0.3749,0.2465,-1.0205,0.2026,0.448,1.547,0.282,-30.554,-29.417,-4.946,5
0.6527,-0.6437,0.1183,-0.3813,0.1723,-1.0019,0.1547,0.594,1.243,0.401,-30.554,-29.417,-4.946,5
0.6551,-0.6397,0.1218,-0.3831,0.1489,-1.0043,0.1279,0.636,0.96,0.447,-30.554,-29.417,-4.946,5
0.6577,-0.6359,0.1246,-0.3838,0.1254,-1.0039,0.1376,0.673,0.688,0.488,-30.554,-29.417,-4.946,5
0.6605,-0.6326,0.1267,-0.3839,0.1196,-1.0034,0.1362,0.667,0.486,0.493,-30.554,-29.417,-4.946,5
0.6632,-0.6296,0.1285,-0.3836,0.1303,-1.0,0.1367,0.632,0.371,0.478,-30.554,-29.417,-4.946,5
0.6685,-0.6238,0.1317,-0.3827,0.1464,-1.0009,0.1357,0.619,0.312,0.516,-30.554,-29.417,-4.946,5
0.6795,-0.6107,0.1427,-0.3806,0.1621,-0.9921,0.1337,0.6,0.602,0.772,-30.554,-29.417,-4.946,5
0.6821,-0.6071,0.1463,-0.3802,0.1713,-0.9829,0.1376,0.566,0.669,0.793,-30.554,-29.417,-4.946,5
0.6845,-0.6035,0.1504,-0.38,0.1708,-0.9819,0.1445,0.521,0.755,0.799,-30.554,-29.417,-4.946,5
0.6866,-0.5999,0.1548,-0.3801,0.1513,-0.975,0.1503,0.469,0.864,0.786,-30.554,-29.417,-4.946,5
0.6885,-0.5962,0.1596,-0.3806,0.1499,-0.9736,0.1572,0.419,0.971,0.755,-30.554,-29.417,-4.946,5
0.6923,-0.5853,0.1745,-0.3841,0.1044,-0.9526,0.1757,0.319,1.106,0.571,-19.304,-31.067,-14.696,5
0.6939,-0.5792,0.1836,-0.3863,0.0839,-0.9589,0.1743,0.221,0.939,0.509,-19.304,-31.067,-14.696,5
0.6945,-0.5768,0.1876,-0.3869,0.0761,-0.9721,0.1572,0.158,0.795,0.488,-19.304,-31.067,-14.696,5
0.6958,-0.5724,0.1964,-0.3866,0.0698,-1.0239,0.1591,0.042,0.131,0.117,-19.304,-31.067,-14.696,5
0.6959,-0.5724,0.1963,-0.3865,0.0781,-1.0375,0.163,0.067,-0.028,-0.02,-19.304,-31.067,-14.696,5
0.6966,-0.5731,0.1937,-0.3855,0.1435,-1.039,0.1606,0.143,-0.369,-0.105,-19.304,-31.067,-14.696,5
0.6974,-0.5745,0.1892,-0.3841,0.2441,-1.0537,0.1762,0.129,-0.475,-0.162,-19.304,-31.067,-14.696,5
0.6949,-0.5773,0.1828,-0.3878,0.2714,-1.0336,0.249,-0.098,0.096,-0.519,-19.304,-31.067,-14.696,5
0.6855,-0.5817,0.1806,-0.3985,0.2412,-0.8798,0.291,-0.408,0.246,-0.772,-12.554,-30.917,-17.396,5
0.6825,-0.5836,0.1798,-0.4014,0.2338,-0.8193,0.3081,-0.494,0.184,-0.821,-12.554,-30.917,-17.396,5
0.6792,-0.5861,0.1788,-0.4038,0.247,-0.7822,0.3183,-0.574,0.067,-0.817,-12.554,-30.917,-17.396,5
0.676,-0.589,0.1777,-0.4054,0.2617,-0.7529,0.3178,-0.641,-0.09,-0.751,-12.554,-30.917,-17.396,5
0.656,-0.6099,0.1708,-0.4102,0.225,-0.9726,0.3037,-0.489,0.128,-0.479,-12.554,-30.917,-17.396,5
0.6536,-0.6116,0.1705,-0.4118,0.1772,-0.9833,0.2929,-0.477,0.082,-0.573,-12.554,-30.917,-17.396,5
0.6511,-0.6136,0.1694,-0.4132,0.1572,-0.978,0.2895,-0.484,-0.077,-0.663,-12.554,-30.917,-17.396,5
0.6485,-0.6164,0.1671,-0.414,0.1479,-0.9736,0.2709,-0.504,-0.369,-0.762,-12.554,-30.917,-17.396,5
0.646,-0.62,0.1633,-0.414,0.1508,-0.9604,0.2602,-0.508,-0.761,-0.873,-12.554,-30.917,-17.396,5
0.6437,-0.6245,0.1576,-0.413,0.1928,-0.9243,0.2456,-0.477,-1.22,-0.991,-12.554,-30.917,-17.396,5
0.6415,-0.6298,0.1502,-0.4112,0.2343,-0.8935,0.2412,-0.447,-1.623,-1.114,-12.554,-30.917,-17.396,5
0.6369,-0.6415,0.1324,-0.4064,0.3789,-0.8139,0.2363,-0.432,-1.957,-1.229,-18.554,-32.267,-9.896,5
0.6343,-0.6471,0.1235,-0.4043,0.4252,-0.7802,0.2231,-0.441,-1.852,-1.228,-18.554,-32.267,-9.896,5
0.6283,-0.657,0.1085,-0.4021,0.4721,-0.7416,0.1748,-0.483,-1.344,-1.192,-18.554,-32.267,-9.896,5
0.6249,-0.6613,0.1025,-0.4018,0.4501,-0.7329,0.1367,-0.521,-1.097,-1.144,-18.554,-32.267,-9.896,5
0.6214,-0.6653,0.0974,-0.4019,0.4399,-0.7558,0.1162,-0.57,-0.896,-1.1,-18.554,-32.267,-9.896,5
0.6019,-0.6807,0.0806,-0.4095,0.4057,-0.8295,0.1005,-0.628,-0.09,-1.024,-18.554,-32.267,-9.896,5
0.5938,-0.6848,0.0769,-0.4152,0.4428,-0.853,0.1181,-0.665,0.106,-0.986,-18.554,-32.267,-9.896,5
0.5896,-0.6866,0.0758,-0.4184,0.4653,-0.8505,0.1308,-0.699,0.195,-0.939,-18.554,-32.267,-9.896,5
0.5812,-0.6896,0.0754,-0.4252,0.4746,-0.8935,0.1611,-0.75,0.445,-0.804,-18.554,-32.267,-9.896,5
0.5731,-0.691,0.0778,-0.4334,0.458,-0.9282,0.1582,-0.75,0.769,-0.687,-18.554,-32.267,-9.896,5
0.561,-0.6913,0.084,-0.4474,0.395,-0.9379,0.1391,-0.731,0.973,-0.657,-30.554,30.419,0.753,5
0.5533,-0.6912,0.0886,-0.4562,0.3618,-0.9648,0.1655,-0.711,0.923,-0.588,-30.554,30.419,0.753,5
0.5357,-0.6928,0.0998,-0.4721,0.4194,-1.0346,0.1718,-0.331,0.09,-0.039,-30.554,30.419,0.753,5
0.5351,-0.6935,0.1006,-0.4716,0.4316,-1.0673,0.1679,-0.264,-0.023,0.091,-30.554,30.419,0.753,5
0.5349,-0.6941,0.1016,-0.4708,0.4575,-1.1088,0.166,-0.202,-0.08,0.203,-30.554,30.419,0.753,5
0.5351,-0.6946,0.1028,-0.4694,0.4711,-1.163,0.165,-0.165,-0.103,0.337,-30.554,30.419,0.753,5
0.5383,-0.6954,0.108,-0.4635,0.5053,-1.2426,0.1171,-0.055,-0.155,0.66,-30.554,30.419,0.753,5
0.5437,-0.6954,0.1143,-0.4557,0.5107,-1.1625,0.0844,0.023,-0.201,0.794,-30.554,30.419,0.753,5
0.5457,-0.6952,0.1164,-0.4529,0.5102,-1.1093,0.0976,0.045,-0.2,0.817,-28.304,29.669,1.953,5
0.548,-0.6949,0.1186,-0.45,0.4907,-1.0371,0.1015,0.097,-0.188,0.849,-28.304,29.669,1.953,5
0.5507,-0.6942,0.1209,-0.4473,0.4721,-0.9599,0.1103,0.142,-0.157,0.882,-28.304,29.669,1.953,5
0.5535,-0.6933,0.1232,-0.4446,0.4418,-0.8916,0.1064,0.188,-0.128,0.914,-28.304,29.669,1.953,5
0.5637,-0.6905,0.1286,-0.4343,0.3144,-0.8378,0.0029,0.417,-0.473,1.004,-28.304,29.669,1.953,5
0.5876,-0.6901,0.1203,-0.4048,0.3666,-0.9516,-0.1718,1.225,-1.981,1.082,-28.304,29.669,1.953,5
0.5954,-0.6897,0.1151,-0.3954,0.4375,-0.9741,-0.166,1.419,-2.102,1.056,-28.304,29.669,1.953,5
0.6037,-0.6885,0.1099,-0.3863,0.5224,-0.9814,-0.125,1.54,-2.025,1.079,-28.304,29.669,1.953,5
0.612,-0.6865,0.1055,-0.3779,0.6083,-0.9633,-0.0683,1.587,-1.787,1.139,-28.304,29.669,1.953,5
0.6202,-0.6838,0.1024,-0.3703,0.6694,-0.9448,-0.0258,1.574,-1.437,1.216,-28.304,29.669,1.953,5
0.6415,-0.6711,0.1033,-0.3567,0.7529,-0.8642,0.0834,1.341,0.141,1.228,-28.304,29.669,1.953,5
0.6532,-0.6394,0.1452,-0.3784,0.3085,-0.8232,0.0356,-0.018,2.522,0.515,-24.739,23.232,-2.364,5
0.6508,-0.6233,0.1753,-0.3963,0.0429,-0.8554,0.0107,0.142,1.354,0.507,-24.739,23.232,-2.364,5
0.656,-0.6138,0.1866,-0.3974,0.1162,-0.8764,0.0439,0.412,0.573,0.757,-24.739,23.232,-2.364,5
0.6603,-0.6081,0.1928,-0.3961,0.1333,-0.8916,0.0429,0.404,0.477,0.729,-24.739,23.232,-2.364,5
0.6622,-0.6055,0.1953,-0.3957,0.1347,-0.8852,0.0507,0.376,0.42,0.626,-24.739,23.232,-2.364,5
0.6655,-0.6014,0.1983,-0.3949,0.1406,-0.8969,0.0556,0.403,0.191,0.392,-24.739,23.232,-2.364,5
0.6672,-0.5998,0.1985,-0.3943,0.1533,-0.8974,0.0615,0.441,0.024,0.283,-24.739,23.232,-2.364,5
0.674,-0.5972,0.1923,-0.3897,0.2524,-0.9887,0.0908,0.372,-0.497,0.066,-17.754,20.825,-4.59,5
0.6764,-0.5974,0.1872,-0.3879,0.2807,-1.0444,0.1049,0.191,-0.21,-0.096,-17.754,20.825,-4.59,5
0.6576,-0.6007,0.1954,-0.4104,0.3281,-0.9975,0.3134,-1.015,0.815,-0.213,-17.754,20.825,-4.59,5
0.6507,-0.6056,0.1988,-0.4124,0.3251,-0.997,0.3193,-0.858,0.096,-0.325,-17.754,20.825,-4.59,5
0.6423,-0.6193,0.1895,-0.4096,0.3925,-0.9472,0.2934,-0.492,-0.906,-0.56,-20.904,20.225,-2.19,5
0.6261,-0.6494,0.1492,-0.4048,0.4052,-0.6938,0.1586,-0.436,-1.076,-1.169,-20.904,20.225,-2.19,5
0.6229,-0.6536,0.1435,-0.405,0.4213,-0.7167,0.185,-0.486,-0.954,-1.203,-20.904,20.225,-2.19,5
0.6194,-0.6574,0.1384,-0.4059,0.4165,-0.7338,0.1943,-0.523,-0.758,-1.21,-20.904,20.225,-2.19,5
0.6156,-0.6609,0.1341,-0.4074,0.4057,-0.7431,0.1894,-0.558,-0.53,-1.183,-20.904,20.225,-2.19,5
0.6078,-0.6666,0.1276,-0.412,0.3491,-0.7656,0.1342,-0.556,-0.144,-1.134,-20.904,20.225,-2.19,5
0.5997,-0.6711,0.1224,-0.4181,0.2934,-0.8125,0.0971,-0.524,0.047,-1.151,-20.904,20.225,-2.19,5
0.5957,-0.673,0.12,-0.4214,0.2622,-0.8457,0.0922,-0.508,0.085,-1.156,-20.904,20.225,-2.19,5
0.5918,-0.6749,0.1177,-0.4247,0.2431,-0.8681,0.0908,-0.503,0.106,-1.169,32.482,15.275,8.609,5
0.5878,-0.6767,0.1153,-0.428,0.2387,-0.8872,0.1035,-0.503,0.097,-1.196,32.482,15.275,8.609,5
0.5837,-0.6785,0.113,-0.4312,0.2421,-0.8959,0.1098,-0.534,0.073,-1.197,32.482,15.275,8.609,5
0.5711,-0.6848,0.1068,-0.4396,0.2929,-0.9111,0.1655,-0.666,0.053,-1.072,32.482,15.275,8.609,5
0.567,-0.6868,0.1054,-0.4422,0.3066,-0.9213,0.1718,-0.677,0.079,-0.997,32.482,15.275,8.609,5
