q0,q1,q2,q3,MotionDeg,Roll,Pitch,Yaw,accX,accY,accZ,gyrX,gyrY,gyrZ,magX,magY,magZ,0
0.7656,-0.6369,-0.0478,0.0759,0.034169678,-79.65019,182.27351,185.3836,-0.019,-0.9863,0.1865,0.038,-0.021,0.013,20.099,1.963,-3.45,51
0.7658,-0.6367,-0.0478,0.076,0.054666903,-79.61805,182.27982,185.4005,-0.0229,-0.9897,0.1845,0.039,-0.008,0.012,20.099,1.963,-3.45,51
0.7661,-0.6363,-0.0475,0.0762,0.120176,-79.560394,182.33829,185.47147,-0.0405,-0.9916,0.1835,0.035,0.01,0.015,20.099,1.963,-3.45,51
0.7662,-0.6362,-0.0474,0.0762,0.13599391,-79.54397,182.3501,185.48486,-0.0385,-0.9921,0.1855,0.031,0,0.017,20.099,1.963,-3.45,51
0.7662,-0.6361,-0.0473,0.0763,0.14623626,-79.53508,182.37566,185.51308,-0.0375,-0.9921,0.1855,0.027,-0.001,0.015,20.099,1.963,-3.45,51
0.7663,-0.6361,-0.0473,0.0764,0.17363206,-79.527916,182.38635,185.528,-0.0361,-0.9824,0.1787,0.027,-0.006,0.016,20.099,1.963,-3.45,51
0.7664,-0.636,-0.0472,0.0766,0.18619478,-79.51186,182.42258,185.5711,-0.0307,-0.9843,0.187,0.027,-0.016,0.022,20.099,1.963,-3.45,51
0.7664,-0.6359,-0.0472,0.0767,0.20717202,-79.503235,182.43332,185.58687,-0.0361,-0.9838,0.1831,0.023,-0.02,0.018,20.099,1.963,-3.45,51
0.7665,-0.6358,-0.0473,0.0769,0.22073671,-79.48771,182.43993,185.60513,-0.0273,-0.9833,0.1894,0.022,-0.023,0.012,20.099,1.963,-3.45,51
0.7665,-0.6357,-0.0473,0.077,0.23736331,-79.47907,182.45064,185.6209,-0.0351,-0.9819,0.1879,0.023,-0.029,0.015,20.099,1.963,-3.45,51
0.7666,-0.6356,-0.0474,0.0771,0.25131968,-79.46337,182.44502,185.6243,-0.0283,-0.9858,0.1831,0.016,-0.025,0.008,20.099,1.963,-3.45,51
0.7667,-0.6354,-0.0475,0.0776,0.29861602,-79.43958,182.48668,185.68803,-0.0278,-0.9951,0.1914,0.008,-0.025,0.012,20.099,1.963,-3.45,51
0.7667,-0.6354,-0.0475,0.0777,0.30556202,-79.439766,182.49886,185.70288,-0.0244,-0.9931,0.187,0.005,-0.02,0.014,20.099,1.963,-3.45,51
0.7667,-0.6354,-0.0476,0.0779,0.322274,-79.44042,182.50845,185.7202,-0.0283,-0.9936,0.187,0,-0.012,0.011,20.099,1.963,-3.45,51
0.7667,-0.6354,-0.0476,0.078,0.3370516,-79.440605,182.52065,185.73505,-0.0312,-0.9946,0.1948,0.007,-0.014,0.014,20.999,2.563,-3.3,51
0.7667,-0.6353,-0.0476,0.0781,0.3370516,-79.43196,182.53133,185.75082,-0.0317,-0.9956,0.1889,0.004,-0.005,0.006,20.999,2.563,-3.3,51
0.7667,-0.6353,-0.0476,0.0781,0.3370516,-79.43196,182.53133,185.75082,-0.0249,-0.9858,0.1899,0.001,0,0.005,20.999,2.563,-3.3,51
0.7667,-0.6353,-0.0476,0.0782,0.3545242,-79.432144,182.5435,185.76567,-0.0297,-0.9882,0.1904,0.003,-0.005,0.009,20.999,2.563,-3.3,51
0.7668,-0.6352,-0.0475,0.0783,0.36689922,-79.415855,182.56738,185.79385,-0.0302,-0.9936,0.1884,0.006,0,0.008,20.999,2.563,-3.3,51
0.7668,-0.6352,-0.0474,0.0783,0.36689922,-79.41556,182.58217,185.80624,-0.0312,-0.9858,0.1914,0.006,0.009,0.01,20.999,2.563,-3.3,51
0.7668,-0.6352,-0.0474,0.0783,0.3790451,-79.41556,182.58217,185.80624,-0.0224,-0.9902,0.1933,0.003,0.014,0.007,20.999,2.563,-3.3,51
0.7669,-0.6351,-0.0473,0.0783,0.3790451,-79.39908,182.59386,185.81956,-0.0297,-0.9873,0.1958,0.008,0.009,0.005,20.999,2.563,-3.3,51
0.7669,-0.6351,-0.0473,0.0783,0.39181748,-79.39908,182.59386,185.81956,-0.0263,-0.9882,0.1914,0.011,0.007,0.002,20.999,2.563,-3.3,51
0.767,-0.635,-0.0472,0.0783,0.3860885,-79.3826,182.60555,185.83287,-0.0317,-0.979,0.1923,0.012,0.01,0.001,20.999,2.563,-3.3,51
0.767,-0.635,-0.0471,0.0782,0.38862944,-79.382126,182.60815,185.8304,-0.0214,-0.979,0.1967,0.01,0.021,0.001,20.999,2.563,-3.3,51
0.767,-0.635,-0.047,0.0782,0.3871075,-79.38182,182.62294,185.84279,-0.0317,-0.9921,0.1992,0.002,0.031,0.007,20.999,2.563,-3.3,51
0.767,-0.635,-0.0466,0.078,0.39398253,-79.38023,182.65773,185.86263,-0.04,-0.9956,0.1899,0,0.042,0.009,20.999,2.563,-3.3,51
0.7671,-0.635,-0.0464,0.0779,0.40823832,-79.37209,182.67354,185.87254,-0.0458,-0.9995,0.1977,0.011,0.035,0,20.699,2.863,-3.6,51
0.7672,-0.6349,-0.0461,0.0777,0.42664832,-79.354645,182.69046,185.88086,-0.0395,-0.9975,0.2084,0.017,0.05,-0.004,20.699,2.863,-3.6,51
0.7673,-0.6348,-0.0458,0.0775,0.44870725,-79.33719,182.7074,185.88916,-0.0317,-0.9868,0.2016,0.019,0.059,-0.003,20.699,2.863,-3.6,51
0.7674,-0.6347,-0.0455,0.0773,0.46392676,-79.31973,182.72435,185.89743,-0.039,-0.9853,0.206,0.023,0.065,0.002,20.699,2.863,-3.6,51
0.7675,-0.6347,-0.0453,0.0772,0.49382693,-79.311584,182.74017,185.90727,-0.0458,-0.9809,0.2001,0.019,0.06,0.011,20.699,2.863,-3.6,51
0.7677,-0.6345,-0.0448,0.077,0.5426315,-79.27726,182.78363,185.94104,-0.0468,-0.979,0.2031,0.029,0.035,0.007,20.699,2.863,-3.6,51
0.7678,-0.6343,-0.0447,0.077,0.5809712,-79.251915,182.79385,185.95506,-0.0473,-0.977,0.2089,0.038,0.029,0,20.699,2.863,-3.6,51
0.7685,-0.6336,-0.0443,0.0773,0.6919669,-79.137726,182.86775,186.0544,-0.0512,-0.9868,0.2119,0.037,-0.005,0.017,20.699,2.863,-3.6,51
0.7686,-0.6334,-0.0442,0.0774,0.7208649,-79.11247,182.89003,186.08316,-0.062,-0.9853,0.2065,0.037,0,0.018,20.699,2.863,-3.6,51
0.7687,-0.6333,-0.044,0.0775,0.7400062,-79.09568,182.92851,186.12334,-0.0712,-0.9985,0.2104,0.03,0.007,0.014,20.699,2.863,-3.6,51
0.7692,-0.6327,-0.0434,0.0772,0.84890956,-79.00339,182.96391,186.15715,-0.1083,-0.9887,0.1992,0.05,0.011,-0.034,20.699,2.863,-3.6,51
0.7696,-0.6322,-0.0437,0.0773,0.8850282,-78.93114,182.91798,186.13896,-0.1166,-0.9707,0.1967,0.057,-0.05,-0.044,21.299,3.914,-3.45,51
0.7698,-0.6319,-0.044,0.0775,0.8879245,-78.891335,182.89023,186.13416,-0.1118,-0.955,0.1992,0.057,-0.089,-0.048,21.299,3.914,-3.45,51
0.7699,-0.6317,-0.0445,0.0778,0.89579535,-78.868546,182.84807,186.11899,-0.1166,-0.958,0.2001,0.044,-0.126,-0.046,21.299,3.914,-3.45,51
0.77,-0.6315,-0.0451,0.0782,0.9052108,-78.846245,182.80318,186.10645,-0.1108,-0.9414,0.1909,0.042,-0.159,-0.064,21.299,3.914,-3.45,51
0.7701,-0.6312,-0.0461,0.0785,0.9330676,-78.81634,182.6859,186.0312,-0.1005,-0.9213,0.186,0.047,-0.2,-0.105,21.299,3.914,-3.45,51
0.7703,-0.6309,-0.0472,0.0787,1.0199482,-78.779144,182.54036,185.92912,-0.0893,-0.8979,0.1928,0.067,-0.22,-0.144,21.299,3.914,-3.45,51
0.7712,-0.6296,-0.0501,0.0789,1.2694081,-78.60701,182.1045,185.61797,-0.0751,-0.8339,0.2041,0.161,-0.243,-0.198,21.299,3.914,-3.45,51
0.7716,-0.6289,-0.0515,0.0789,1.3887372,-78.51911,181.88231,185.45526,-0.0791,-0.871,0.1801,0.135,-0.237,-0.207,21.299,3.914,-3.45,51
0.7719,-0.6284,-0.0527,0.0792,1.4925371,-78.456184,181.72989,185.35954,-0.101,-0.8994,0.1567,0.12,-0.241,-0.149,21.299,3.914,-3.45,51
0.7715,-0.6279,-0.057,0.0843,2.0827262,-78.463646,181.70384,185.5957,-0.1689,-1.1352,0.0551,0.015,-0.414,0.115,21.299,3.914,-3.45,51
0.7714,-0.6276,-0.0581,0.0861,2.270559,-78.45184,181.75314,185.73097,-0.1435,-1.1645,0.0698,0.022,-0.43,0.146,21.299,3.914,-3.45,51
0.7713,-0.6275,-0.0591,0.0879,2.4663897,-78.45775,181.82025,185.87613,-0.1166,-1.1831,0.0751,0.007,-0.382,0.158,21.299,3.914,-3.45,51
0.771,-0.6274,-0.0596,0.0902,2.4303,-78.47873,182.02316,186.1551,-0.0336,-1.1733,0.1186,-0.006,-0.106,0.14,21.299,3.914,-3.45,51
0.771,-0.6275,-0.0591,0.0902,2.2831268,-78.48641,182.09816,186.21452,-0.0039,-1.1162,0.1728,0.003,0.089,0.056,21.299,3.914,-3.45,51
0.7717,-0.6273,-0.057,0.0867,1.8709673,-78.40277,181.97604,185.95612,0.0605,-1.0048,0.2309,0.085,0.496,-0.176,18.449,1.664,-3.3,51
0.775,-0.6252,-0.0515,0.0755,1.9925869,-77.93457,181.37772,184.99527,0.0571,-0.7973,0.2695,0.278,0.86,-0.422,18.449,1.664,-3.3,51
0.7764,-0.6242,-0.0496,0.0713,2.337449,-77.72982,181.13026,184.61652,0.0058,-0.7309,0.2993,0.337,0.849,-0.452,18.449,1.664,-3.3,51
0.7778,-0.623,-0.0479,0.0673,2.7021632,-77.5086,180.87822,184.24461,-0.0327,-0.6938,0.3076,0.362,0.775,-0.448,18.449,1.664,-3.3,51
0.7791,-0.6218,-0.0465,0.0639,2.9790347,-77.296974,180.65723,183.92456,-0.0825,-0.6728,0.3125,0.34,0.651,-0.401,18.449,1.664,-3.3,51
0.7802,-0.6209,-0.0446,0.0602,2.9790719,-77.12573,180.48305,183.61572,-0.1801,-0.8217,0.269,0.031,0.292,-0.091,18.449,1.664,-3.3,51
0.7796,-0.6217,-0.0436,0.0607,2.6701586,-77.24099,180.70213,183.79822,-0.2041,-0.9633,0.2475,-0.197,0.082,0.152,18.449,1.664,-3.3,51
0.7764,-0.6253,-0.0433,0.0644,2.0280259,-77.8014,181.25569,184.34238,-0.2324,-1.1381,0.2011,-0.499,-0.279,0.353,18.449,1.664,-3.3,51
0.7746,-0.6271,-0.0466,0.0655,2.0563145,-78.09868,180.94408,184.09218,-0.1484,-1.0908,0.2543,-0.175,-0.323,-0.285,18.449,1.664,-3.3,51
0.7749,-0.6268,-0.0489,0.0644,2.2664924,-78.048195,180.46875,183.65837,-0.0776,-1.0512,0.3046,0.017,-0.237,-0.501,18.449,1.664,-3.3,51
0.7754,-0.6262,-0.0508,0.0628,2.5380456,-77.95257,179.9877,183.20337,-0.0263,-0.9873,0.3496,0.061,-0.092,-0.526,18.449,1.664,-3.3,51
0.7737,-0.6288,-0.0501,0.0573,2.5169725,-78.2853,179.47984,182.44543,-0.1108,-1.0161,0.3188,-0.379,0.261,-0.068,18.449,1.664,-3.3,51
0.7727,-0.6302,-0.0495,0.0563,2.558225,-78.47873,179.47148,182.35225,-0.1538,-1.0209,0.2988,-0.384,0.21,-0.104,19.199,1.363,-2.55,51
0.7719,-0.6313,-0.0495,0.0553,2.640407,-78.63003,179.36893,182.19026,-0.1582,-1.0327,0.2729,-0.325,0.127,-0.196,19.199,1.363,-2.55,51
0.7713,-0.6321,-0.0499,0.0542,2.997428,-78.73884,179.18959,181.96838,-0.1513,-1.0092,0.2719,-0.25,0.066,-0.294,19.199,1.363,-2.55,51
0.7708,-0.6328,-0.0517,0.0509,3.2462468,-78.816376,178.53278,181.25145,-0.0825,-0.9389,0.2929,-0.115,0.08,-0.439,19.199,1.363,-2.55,51
0.7709,-0.6328,-0.0526,0.0488,3.8436964,-78.79474,178.14326,180.83192,-0.0581,-0.8994,0.2944,-0.071,0.127,-0.483,19.199,1.363,-2.55,51
0.7715,-0.6323,-0.054,0.0438,4.6565657,-78.67136,177.32031,179.93246,-0.0498,-0.8676,0.3178,0.017,0.23,-0.521,19.199,1.363,-2.55,51
0.7724,-0.6317,-0.0542,0.0367,4.8780947,-78.50531,176.42117,178.87407,-0.0771,-0.8715,0.3217,-0.066,0.31,-0.367,19.199,1.363,-2.55,51
0.772,-0.6325,-0.0533,0.0326,5.296354,-78.58226,176.06157,178.36493,-0.083,-0.9062,0.3281,-0.195,0.328,-0.289,19.199,1.363,-2.55,51
0.7716,-0.633,-0.0526,0.0305,5.525641,-78.64534,175.91237,178.12994,-0.0756,-0.9296,0.33,-0.212,0.365,-0.279,19.199,1.363,-2.55,51
0.7713,-0.6336,-0.0517,0.0283,5.7925067,-78.710846,175.78043,177.90442,-0.0859,-0.9355,0.3461,-0.222,0.416,-0.277,19.199,1.363,-2.55,51
0.7706,-0.6351,-0.048,0.0203,6.719066,-78.86484,175.35585,177.14764,-0.0874,-0.9497,0.3618,-0.185,0.567,-0.324,19.199,1.363,-2.55,51
0.7704,-0.6355,-0.0468,0.0175,7.005158,-78.90409,175.19135,176.87308,-0.1054,-0.9423,0.3706,-0.183,0.546,-0.32,19.199,1.363,-2.55,51
0.7702,-0.6359,-0.0457,0.015,7.245883,-78.94486,175.04822,176.63084,-0.1152,-0.9291,0.3784,-0.184,0.485,-0.311,19.199,1.363,-2.55,51
0.7699,-0.6363,-0.0449,0.0129,7.427565,-78.99335,174.90874,176.4102,-0.1259,-0.9331,0.3833,-0.209,0.385,-0.295,19.199,0.463,-1.35,51
0.7695,-0.6369,-0.0445,0.0113,7.5504966,-79.06686,174.77074,176.21194,-0.1323,-0.9321,0.3715,-0.229,0.257,-0.268,19.199,0.463,-1.35,51
0.769,-0.6375,-0.0445,0.0102,7.6142235,-79.14764,174.63379,176.03761,-0.1333,-0.9404,0.352,-0.253,0.116,-0.239,19.199,0.463,-1.35,51
0.7683,-0.6383,-0.045,0.0096,7.64419,-79.259476,174.48296,175.87172,-0.1225,-0.9428,0.3452,-0.276,-0.022,-0.223,19.199,0.463,-1.35,51
0.7676,-0.6391,-0.046,0.0093,7.6312604,-79.368484,174.29436,175.68834,-0.1137,-0.9614,0.3413,-0.281,-0.148,-0.226,19.199,0.463,-1.35,51
0.7654,-0.6414,-0.0507,0.0101,7.543658,-79.68746,173.68411,175.17534,-0.0566,-1.0351,0.3378,-0.289,-0.336,-0.197,19.199,0.463,-1.35,51
0.7643,-0.6425,-0.0524,0.0105,7.541653,-79.8482,173.47534,174.99664,-0.0288,-1.0698,0.3388,-0.323,-0.332,-0.155,19.199,0.463,-1.35,51
0.7631,-0.6438,-0.0539,0.0108,7.5859017,-80.0345,173.28336,174.8226,-0.0112,-1.0849,0.3276,-0.357,-0.29,-0.125,19.199,0.463,-1.35,51
0.7589,-0.6485,-0.0565,0.0114,7.664724,-80.72483,172.95012,174.46613,0.0161,-1.1899,0.269,-0.457,-0.107,-0.015,19.199,0.463,-1.35,51
0.7574,-0.6503,-0.0566,0.0115,7.7109213,-80.99089,172.94109,174.42303,0.0146,-1.2231,0.2333,-0.494,-0.039,0.035,19.199,0.463,-1.35,51
0.7558,-0.6522,-0.0564,0.0117,7.7537994,-81.277794,172.99004,174.43031,0.0141,-1.2387,0.2075,-0.507,-0.005,0.089,19.199,0.463,-1.35,51
0.7542,-0.6541,-0.056,0.012,7.768022,-81.56828,173.0829,174.47876,0.0029,-1.2539,0.1801,-0.493,-0.005,0.123,19.199,0.463,-1.35,51
0.75,-0.6588,-0.0557,0.0149,7.6194882,-82.31728,173.49893,174.8331,0.0395,-1.1767,0.1254,-0.372,-0.206,0.2,19.199,0.463,-1.35,51
0.7489,-0.6599,-0.0562,0.0164,7.53663,-82.502235,173.6215,174.96365,0.062,-1.1269,0.1289,-0.307,-0.29,0.185,19.199,0.463,-1.35,51
0.7477,-0.6611,-0.0583,0.0194,7.3488607,-82.6983,173.70445,175.10585,0.1196,-1.0219,0.1411,-0.111,-0.379,0.086,20.099,0.763,4.499,51
0.7477,-0.6608,-0.0608,0.0218,7.1280203,-82.66554,173.64653,175.14096,0.1367,-0.9565,0.1386,0.071,-0.33,0.042,20.099,0.763,4.499,51
0.748,-0.6603,-0.0616,0.0228,6.988461,-82.60047,173.6588,175.19778,0.1259,-0.9604,0.1313,0.124,-0.261,0.072,20.099,0.763,4.499,51
0.7484,-0.6598,-0.0617,0.0239,6.8452,-82.53772,173.79143,175.36472,0.0834,-0.9907,0.1225,0.131,-0.162,0.144,20.099,0.763,4.499,51
0.7487,-0.6595,-0.0612,0.025,6.6759133,-82.5067,174.01569,175.60693,0.0297,-1.0615,0.0971,0.11,-0.067,0.23,20.099,0.763,4.499,51
0.7488,-0.6594,-0.0602,0.0264,6.49289,-82.51599,174.35669,175.9552,-0.0302,-1.0893,0.0664,0.099,-0.038,0.301,20.099,0.763,4.499,51
0.7494,-0.6588,-0.059,0.0292,6.144492,-82.45881,174.9145,176.55634,-0.104,-1.0981,0.0312,0.132,-0.133,0.242,20.099,0.763,4.499,51
0.7507,-0.657,-0.0591,0.0346,5.4234037,-82.25324,175.61241,177.40274,-0.0483,-1.0712,0.0512,0.214,-0.287,0.27,20.099,0.763,4.499,51
0.7511,-0.6564,-0.0591,0.0369,5.163698,-82.19095,175.91486,177.764,-0.0522,-1.061,0.0576,0.195,-0.304,0.312,20.099,0.763,4.499,51
0.7514,-0.6559,-0.0591,0.0393,4.900444,-82.14498,176.23035,178.13762,-0.0561,-1.0581,0.0537,0.187,-0.32,0.327,20.099,0.763,4.499,51
0.7517,-0.6554,-0.0592,0.0418,4.6402864,-82.09836,176.5429,178.51294,-0.0576,-1.0395,0.0493,0.192,-0.361,0.31,20.099,0.763,4.499,51
0.7521,-0.6547,-0.0597,0.0443,4.181593,-82.023506,176.79149,178.83894,-0.0561,-1.0146,0.061,0.201,-0.409,0.275,20.099,0.763,4.499,51
0.7528,-0.6534,-0.0613,0.0492,3.9827633,-81.884384,177.18185,179.39424,-0.0419,-0.9726,0.062,0.197,-0.483,0.223,20.099,0.763,4.499,51
0.7535,-0.652,-0.0638,0.0541,3.661863,-81.73081,177.43024,179.83302,-0.0004,-0.9287,0.0703,0.196,-0.529,0.181,20.699,-2.237,3.299,51
0.7539,-0.6512,-0.0651,0.0564,3.5440314,-81.64052,177.52403,180.02539,0.0141,-0.9101,0.0747,0.216,-0.519,0.154,20.699,-2.237,3.299,51
0.7545,-0.6502,-0.0666,0.0585,3.4455123,-81.51546,177.55664,180.16676,0.0214,-0.8906,0.0747,0.258,-0.5,0.1,20.699,-2.237,3.299,51
0.7553,-0.649,-0.068,0.0603,3.3709145,-81.35677,177.56015,180.28146,0.0195,-0.8701,0.0688,0.293,-0.47,0.071,20.699,-2.237,3.299,51
0.7561,-0.6477,-0.0693,0.0619,3.3203564,-81.188705,177.5503,180.38104,0.0209,-0.8554,0.08,0.312,-0.425,0.046,20.699,-2.237,3.299,51
0.7569,-0.6465,-0.0705,0.0634,3.2820017,-81.02928,177.54268,180.47775,0.0102,-0.8466,0.0805,0.315,-0.379,0.041,20.699,-2.237,3.299,51
0.7585,-0.6442,-0.0724,0.0659,3.2479954,-80.71868,177.5367,180.66025,-0.0029,-0.8212,0.0678,0.276,-0.304,0.045,20.699,-2.237,3.299,51
0.7597,-0.6423,-0.0737,0.0682,3.2113488,-80.47482,177.60036,180.88002,-0.0141,-0.8388,0.0473,0.216,-0.245,0.08,20.699,-2.237,3.299,51
0.7602,-0.6416,-0.0741,0.0694,3.1600018,-80.38397,177.67911,181.02438,-0.0278,-0.8754,0.0405,0.182,-0.212,0.115,20.699,-2.237,3.299,51
0.7605,-0.6409,-0.0743,0.0719,3.15468,-80.31902,177.9531,181.38573,-0.0361,-0.9155,0.0112,0.148,-0.182,0.153,20.699,-2.237,3.299,51
0.7607,-0.6405,-0.0745,0.0731,3.1530793,-80.277405,178.06714,181.54749,-0.0346,-0.9267,-0.0068,0.166,-0.193,0.145,20.699,-2.237,3.299,51
0.7616,-0.6392,-0.0749,0.0756,3.1475894,-80.1142,178.29414,181.89798,-0.017,-0.9545,-0.0004,0.269,-0.209,0.141,20.699,-2.237,3.299,51
0.7644,-0.6351,-0.0741,0.0819,3.0657258,-79.596245,179.10281,183.01923,0.019,-1.0756,0.0361,0.356,-0.138,0.311,20.699,-2.237,3.299,51
0.7653,-0.6339,-0.0733,0.0834,2.9830544,-79.43673,179.37561,183.36493,0.0356,-1.1074,0.0585,0.352,-0.059,0.301,17.849,-6.737,1.949,51
0.7675,-0.6315,-0.0706,0.084,2.2998297,-79.07377,179.78094,183.83464,0.0747,-1.1171,0.1254,0.357,0.264,0.131,17.849,-6.737,1.949,51
0.7702,-0.6292,-0.0653,0.0799,1.9172097,-78.65915,179.99599,183.92108,0.125,-1.1625,0.208,0.366,0.828,-0.056,17.849,-6.737,1.949,51
0.7715,-0.6285,-0.061,0.0764,1.6148969,-78.48964,180.18224,183.94055,0.1093,-1.2299,0.2309,0.3,1.143,-0.024,17.849,-6.737,1.949,51
0.7727,-0.6281,-0.0554,0.0723,1.5919392,-78.35174,180.49544,184.02142,0.0625,-1.2666,0.2255,0.25,1.442,0.051,17.849,-6.737,1.949,51
0.7732,-0.6285,-0.0486,0.0679,2.0389822,-78.33321,180.96959,184.18987,0.0151,-1.3486,0.225,0.067,1.657,0.167,17.849,-6.737,1.949,51
0.7727,-0.6324,-0.0272,0.046,4.9425306,-78.64342,181.54382,183.515,-0.0893,-1.0937,0.2607,-0.033,1.264,-0.658,17.849,-6.737,1.949,51
0.7747,-0.6308,-0.0258,0.0348,5.883248,-78.34038,180.37434,182.03764,0.019,-0.915,0.2988,0.252,0.702,-0.794,17.849,-6.737,1.949,51
0.776,-0.6293,-0.0261,0.0312,6.0418816,-78.10624,179.88231,181.47998,0.0488,-0.8466,0.3178,0.324,0.403,-0.606,17.849,-6.737,1.949,51
0.7769,-0.6282,-0.0268,0.0297,5.9242644,-77.93957,179.58987,181.18289,0.04,-0.8105,0.3051,0.282,0.083,-0.345,17.849,-6.737,1.949,51
0.7774,-0.6275,-0.028,0.0306,5.5204988,-77.84211,179.51427,181.17752,0.0375,-0.8041,0.291,0.174,-0.307,-0.026,17.849,-6.737,1.949,51
0.7771,-0.6276,-0.0299,0.0337,4.866642,-77.87846,179.60506,181.40642,0.0429,-0.851,0.2612,-0.048,-0.705,0.26,17.849,-6.737,1.949,51
0.7761,-0.6285,-0.0326,0.0386,4.070011,-78.04108,179.80247,181.798,0.06,-0.915,0.2187,-0.272,-1.049,0.467,17.849,-6.737,1.949,51
0.7745,-0.6298,-0.036,0.0444,3.2746062,-78.285736,180.01544,182.23285,0.0883,-0.9814,0.1699,-0.388,-1.28,0.541,17.849,-6.737,1.949,51
0.773,-0.6311,-0.0399,0.0501,2.693038,-78.524284,180.14807,182.59053,0.1445,-1.0317,0.1406,-0.367,-1.358,0.485,20.699,-9.287,5.099,51
0.772,-0.6317,-0.0436,0.0543,2.3326197,-78.66138,180.12285,182.75508,0.2973,-1.0209,0.1992,-0.24,-1.111,0.309,20.699,-9.287,5.099,51
0.772,-0.6309,-0.0496,0.0585,2.3728673,-78.60046,179.73549,182.65526,0.3105,-1.0034,0.2031,0.142,-0.543,-0.02,20.699,-9.287,5.099,51
0.7728,-0.6298,-0.0509,0.0581,2.6684825,-78.44139,179.47643,182.4532,0.3447,-0.9819,0.2563,0.226,-0.138,-0.126,20.699,-9.287,5.099,51
0.774,-0.6285,-0.0508,0.0561,3.0598285,-78.23056,179.2274,182.18881,0.3061,-0.9804,0.2465,0.337,0.291,-0.222,20.699,-9.287,5.099,51
0.7754,-0.6272,-0.0495,0.0531,3.3929317,-78.003174,179.03673,181.92216,0.2421,-0.9082,0.2836,0.329,0.607,-0.229,20.699,-9.287,5.099,51
0.776,-0.6268,-0.047,0.0501,3.7580428,-77.91646,179.03935,181.7855,0.1811,-0.8437,0.3066,0.103,0.801,-0.112,20.699,-9.287,5.099,51
0.7764,-0.6269,-0.0436,0.0469,4.213299,-77.89005,179.15726,181.72061,0.1337,-0.8452,0.2919,-0.004,0.968,-0.023,20.699,-9.287,5.099,51
0.7769,-0.6268,-0.0397,0.0434,5.141141,-77.838715,179.31111,181.67259,0.0649,-0.8745,0.247,0.059,1.08,-0.039,20.699,-9.287,5.099,51
0.7777,-0.627,-0.0283,0.0339,6.0292544,-77.78343,179.85748,181.6309,-0.0634,-0.8173,0.2324,0.011,0.975,0.011,20.699,-9.287,5.099,51
0.778,-0.6269,-0.0249,0.0313,6.429555,-77.74887,180.04721,181.65314,-0.103,-0.8129,0.2358,0.071,0.877,0.011,20.699,-9.287,5.099,51
0.7784,-0.6265,-0.022,0.0289,6.7702074,-77.68059,180.18527,181.64636,-0.1391,-0.8085,0.2255,0.114,0.767,-0.009,20.699,-9.287,5.099,51
0.7798,-0.6251,-0.0181,0.0251,7.2871914,-77.44925,180.2966,181.55537,-0.1806,-0.8178,0.228,0.241,0.472,-0.08,20.699,-9.287,5.099,51
0.7808,-0.624,-0.0173,0.0238,7.428595,-77.27755,180.25226,181.46303,-0.185,-0.812,0.2343,0.305,0.291,-0.13,20.699,-9.287,5.099,51
0.7818,-0.6228,-0.0173,0.0229,7.5087857,-77.09757,180.13805,181.33582,-0.164,-0.7968,0.2749,0.321,0.117,-0.141,20.699,-9.287,5.099,51
0.7827,-0.6217,-0.0177,0.0224,7.5256424,-76.93412,180.0135,181.22047,-0.1611,-0.7958,0.2934,0.294,-0.018,-0.141,20.699,-9.287,5.099,51
0.7834,-0.6207,-0.0185,0.0223,7.5152836,-76.79422,179.87848,181.1172,-0.1264,-0.7822,0.3193,0.241,-0.106,-0.124,21.599,-12.587,4.949,51
0.7838,-0.6201,-0.0193,0.0223,7.4852047,-76.711586,179.75787,181.02727,-0.0971,-0.7934,0.3437,0.141,-0.128,-0.1,21.599,-12.587,4.949,51
0.784,-0.62,-0.0199,0.0224,7.4549994,-76.68823,179.68079,180.97319,-0.0659,-0.7915,0.3452,0.045,-0.107,-0.065,21.599,-12.587,4.949,51
0.7838,-0.6202,-0.0201,0.0225,7.480201,-76.720474,179.66455,180.9636,-0.02,-0.8281,0.353,-0.08,0.009,0.004,21.599,-12.587,4.949,51
0.7836,-0.6204,-0.0197,0.0223,7.549637,-76.75256,179.70126,180.97957,-0.0249,-0.8413,0.3491,-0.111,0.099,0.014,21.599,-12.587,4.949,51
0.7836,-0.6205,-0.0181,0.0214,7.7371774,-76.76085,179.83133,181.03293,-0.0341,-0.8339,0.3432,-0.049,0.204,0.022,21.599,-12.587,4.949,51
0.7837,-0.6204,-0.0171,0.021,7.794298,-76.744446,179.93048,181.0907,-0.0454,-0.8408,0.3403,-0.019,0.199,0.047,21.599,-12.587,4.949,51
0.7838,-0.6204,-0.0159,0.0211,7.79903,-76.73746,180.11705,181.2443,-0.0649,-0.8554,0.3271,-0.028,0.176,0.126,21.599,-12.587,4.949,51
0.7836,-0.6206,-0.0146,0.0217,7.7302923,-76.769745,180.37788,181.48181,-0.0771,-0.8916,0.3139,-0.079,0.125,0.243,21.599,-12.587,4.949,51
0.7831,-0.6212,-0.0132,0.023,7.574045,-76.85878,180.73758,181.8327,-0.0781,-0.9648,0.2797,-0.185,0.054,0.379,21.599,-12.587,4.949,51
0.7808,-0.6239,-0.0105,0.0274,7.177183,-77.2597,181.67003,182.78888,-0.1088,-1.0869,0.2314,-0.384,-0.102,0.537,21.599,-12.587,4.949,51
0.7797,-0.6253,-0.0098,0.0296,7.0313206,-77.4602,182.04535,183.19386,-0.0986,-1.1098,0.2348,-0.364,-0.151,0.441,21.599,-12.587,4.949,51
0.7788,-0.6263,-0.0097,0.0309,6.9487295,-77.61259,182.22527,183.3973,-0.0957,-1.1064,0.2607,-0.264,-0.152,0.245,21.599,-12.587,4.949,51
0.7781,-0.6271,-0.0097,0.0315,7.0120354,-77.73373,182.30615,183.48611,-0.0126,-1.1108,0.3334,-0.087,0.023,0.028,21.599,-12.587,4.949,51
0.7776,-0.6278,-0.0085,0.0315,7.112179,-77.82768,182.49066,183.62907,-0.0136,-1.1611,0.332,-0.176,0.19,0.154,21.599,-12.587,4.949,51
0.7764,-0.6293,-0.0063,0.0317,7.2330947,-78.03835,182.85707,183.92325,-0.0458,-1.2382,0.2998,-0.384,0.34,0.321,21.599,-12.587,4.949,51
0.7746,-0.6315,-0.0036,0.0321,7.3528686,-78.35023,183.33223,184.31244,-0.0903,-1.2753,0.2255,-0.546,0.395,0.434,19.349,-14.987,6.749,51
0.7727,-0.6338,-0.0012,0.0325,7.4031343,-78.67764,183.76736,184.67119,-0.1425,-1.2607,0.1728,-0.605,0.328,0.386,19.349,-14.987,6.749,51
0.7696,-0.6376,-0.0006,0.0326,7.2438507,-79.235565,183.92358,184.77727,-0.143,-1.1606,0.1225,-0.443,-0.039,-0.066,19.349,-14.987,6.749,51
0.7688,-0.6385,-0.002,0.0325,7.0631104,-79.38208,183.71713,184.59413,-0.08,-1.1152,0.1176,-0.265,-0.224,-0.189,19.349,-14.987,6.749,51
0.7682,-0.6392,-0.0037,0.033,6.8531094,-79.49598,183.53638,184.46097,-0.0473,-1.0712,0.1303,-0.178,-0.322,-0.152,19.349,-14.987,6.749,51
0.7676,-0.6399,-0.0052,0.0341,6.6140714,-79.60712,183.45958,184.44107,-0.0395,-1.083,0.1289,-0.163,-0.375,0,19.349,-14.987,6.749,51
0.7669,-0.6406,-0.0062,0.0361,6.3251023,-79.72098,183.57028,184.61748,-0.0673,-1.1196,0.1035,-0.209,-0.414,0.174,19.349,-14.987,6.749,51
0.766,-0.6415,-0.0073,0.0387,5.977718,-79.866455,183.74548,184.87148,-0.1132,-1.1572,0.0942,-0.271,-0.503,0.276,19.349,-14.987,6.749,51
0.7644,-0.6431,-0.0114,0.0442,5.138684,-80.136215,183.85126,185.18356,-0.1313,-1.1752,0.0913,-0.211,-0.742,0.079,19.349,-14.987,6.749,51
0.7636,-0.6435,-0.0185,0.0479,4.3712225,-80.26109,183.26765,184.84291,-0.0083,-1.1044,0.1391,-0.081,-0.786,-0.225,19.349,-14.987,6.749,51
0.7634,-0.6436,-0.0218,0.0489,4.140137,-80.29784,182.90346,184.57526,0.059,-1.06,0.1694,-0.077,-0.65,-0.251,19.349,-14.987,6.749,51
0.763,-0.6439,-0.0243,0.0495,4.014021,-80.3626,182.61278,184.34784,0.083,-1.0415,0.186,-0.119,-0.458,-0.189,19.349,-14.987,6.749,51
0.7625,-0.6444,-0.0259,0.0498,3.9620457,-80.44852,182.4219,184.18796,0.0761,-1.0034,0.1811,-0.172,-0.279,-0.113,19.349,-14.987,6.749,51
0.76,-0.6472,-0.0283,0.0511,3.7617385,-80.88614,182.28357,184.06372,-0.0576,-0.9692,0.1235,-0.282,-0.204,-0.002,19.349,-14.987,6.749,51
0.759,-0.6482,-0.0295,0.052,3.6107576,-81.05147,182.2401,184.03938,-0.0771,-0.9404,0.1079,-0.274,-0.312,-0.024,19.349,-14.987,6.749,51
0.7573,-0.6498,-0.0337,0.0545,3.2048805,-81.32915,181.96635,183.86212,-0.0581,-0.8833,0.0874,-0.233,-0.554,-0.104,13.349,-14.987,15.599,51
0.7566,-0.6503,-0.0366,0.056,2.98062,-81.431755,181.73695,183.70709,-0.0458,-0.8476,0.0786,-0.192,-0.642,-0.125,13.349,-14.987,15.599,51
0.7561,-0.6506,-0.0396,0.0577,2.5946913,-81.50176,181.51408,183.56963,-0.04,-0.8403,0.0732,-0.143,-0.704,-0.139,13.349,-14.987,15.599,51
0.7553,-0.6507,-0.0461,0.0613,2.4539046,-81.58182,181.01143,183.26166,-0.0249,-0.8061,0.0673,-0.055,-0.752,-0.14,13.349,-14.987,15.599,51
0.7551,-0.6505,-0.0492,0.0632,2.3634355,-81.584366,180.79045,183.14473,-0.0253,-0.8061,0.0644,-0.017,-0.739,-0.134,13.349,-14.987,15.599,51
0.7551,-0.6502,-0.0522,0.065,2.32109,-81.56236,180.56792,183.0278,-0.0258,-0.8183,0.0664,0.021,-0.717,-0.114,13.349,-14.987,15.599,51
0.7549,-0.6496,-0.0572,0.0688,2.3856604,-81.534424,180.30156,182.95438,-0.0244,-0.833,0.062,0.018,-0.614,-0.017,13.349,-14.987,15.599,51
0.7547,-0.6495,-0.0591,0.0706,2.4422696,-81.54576,180.24968,182.97804,-0.0195,-0.8461,0.0659,-0.015,-0.529,0.038,13.349,-14.987,15.599,51
0.7533,-0.6504,-0.061,0.0746,2.6242368,-81.744606,180.51364,183.3137,-0.017,-0.9213,0.0493,-0.101,-0.148,0.147,13.349,-14.987,15.599,51
0.7529,-0.6509,-0.0607,0.0751,2.4885457,-81.820786,180.63681,183.42003,-0.0312,-0.9306,0.0415,-0.073,-0.024,0.12,13.349,-14.987,15.599,51
0.7535,-0.6504,-0.0596,0.074,2.3739648,-81.72892,180.64388,183.4078,-0.0327,-0.9052,0.0659,0.177,0.145,-0.111,13.349,-14.987,15.599,51
0.7544,-0.6496,-0.0594,0.0731,2.2512612,-81.58825,180.53346,183.31296,-0.04,-0.9067,0.0942,0.258,0.144,-0.146,13.349,-14.987,15.599,51
0.7561,-0.6476,-0.059,0.072,2.0222955,-81.283,180.40071,183.23283,-0.0551,-0.958,0.0913,0.282,0.064,-0.065,6.599,-18.887,19.349,51
0.7572,-0.6463,-0.0586,0.0729,1.8541925,-81.09254,180.54324,183.4413,-0.0683,-1.0698,0.0786,0.189,-0.068,0.087,6.599,-18.887,19.349,51
0.7582,-0.645,-0.0586,0.0742,1.6896532,-80.91057,180.67693,183.65694,-0.0371,-1.1484,0.0742,0.186,-0.082,0.074,6.599,-18.887,19.349,51
0.7589,-0.6442,-0.0586,0.0743,1.5818766,-80.789185,180.66858,183.68475,-0.0097,-1.1572,0.0898,0.225,-0.008,-0.001,6.599,-18.887,19.349,51
0.761,-0.642,-0.0578,0.0725,1.2845166,-80.434105,180.50183,183.55289,0.0673,-1.1479,0.1181,0.34,0.258,-0.148,6.599,-18.887,19.349,51
0.7624,-0.6406,-0.0565,0.0708,1.1236793,-80.201904,180.44542,183.48581,0.0732,-1.1596,0.1176,0.382,0.41,-0.119,6.599,-18.887,19.349,51
0.7638,-0.6393,-0.0543,0.0692,1.0133296,-79.97967,180.53873,183.54427,0.0659,-1.2045,0.1337,0.408,0.545,-0.002,6.599,-18.887,19.349,51
0.7651,-0.6382,-0.0513,0.0679,1.320851,-79.78342,180.79323,183.74245,0.0498,-1.225,0.1279,0.379,0.646,0.167,6.599,-18.887,19.349,51
0.7677,-0.6363,-0.039,0.0636,2.3065596,-79.40017,182.0329,184.65376,0.0224,-1.2109,0.2221,0.184,0.921,0.266,6.599,-18.887,19.349,51
0.7686,-0.6358,-0.035,0.0607,2.9260569,-79.27615,182.25365,184.7208,0.0551,-1.1318,0.2705,0.208,1.015,0.044,6.599,-18.887,19.349,51
0.7695,-0.6352,-0.0314,0.0568,3.5769932,-79.14357,182.29343,184.58849,0.1142,-1.0952,0.309,0.236,1.076,-0.163,6.599,-18.887,19.349,51
0.7717,-0.6335,-0.024,0.0488,4.7718897,-78.80646,182.37505,184.31462,0.1601,-1.0493,0.3383,0.3,1.104,-0.112,6.599,-18.887,19.349,51
0.7726,-0.6328,-0.0202,0.0458,5.1467624,-78.666176,182.55838,184.33408,0.1054,-1.0336,0.3193,0.2,0.982,0.062,6.599,-18.887,19.349,51
0.7728,-0.6327,-0.0169,0.0444,5.3178062,-78.63056,182.87408,184.5275,0.0141,-1.0175,0.3032,0.046,0.723,0.222,6.599,-18.887,19.349,51
0.7726,-0.633,-0.0145,0.0446,5.2765455,-78.66046,183.25742,184.8484,-0.0576,-1.0043,0.2607,-0.079,0.362,0.332,4.499,-16.337,20.699,51
0.7722,-0.6335,-0.0135,0.0461,5.008199,-78.726326,183.59494,185.19241,-0.0874,-0.9951,0.2402,-0.14,-0.056,0.351,4.499,-16.337,20.699,51
0.7717,-0.6339,-0.0142,0.0488,4.0824184,-78.79721,183.82712,185.50824,-0.0639,-1.0126,0.2265,-0.125,-0.456,0.327,4.499,-16.337,20.699,51
0.7712,-0.6337,-0.0189,0.0561,3.5871837,-78.830826,184.01836,186.01904,0.0581,-1.0117,0.2045,-0.008,-0.921,0.303,4.499,-16.337,20.699,51
0.7711,-0.6334,-0.0217,0.0599,3.1272027,-78.82248,184.06099,186.24156,0.1035,-1.019,0.1787,0.028,-0.945,0.284,4.499,-16.337,20.699,51
0.7711,-0.633,-0.0245,0.0634,2.763823,-78.79912,184.06427,186.41971,0.125,-1.0185,0.1704,0.061,-0.874,0.259,4.499,-16.337,20.699,51
0.7712,-0.6325,-0.0269,0.0662,2.4840999,-78.7586,184.03899,186.5433,0.1264,-1.0185,0.1665,0.086,-0.75,0.188,4.499,-16.337,20.699,51
0.7714,-0.6319,-0.029,0.0683,2.310474,-78.70116,183.97049,186.60042,0.1044,-1.0014,0.1826,0.118,-0.589,0.111,4.499,-16.337,20.699,51
0.7718,-0.6312,-0.0306,0.0696,2.2195745,-78.61811,183.87494,186.6004,0.081,-1,0.1899,0.142,-0.423,0.034,4.499,-16.337,20.699,51
0.7722,-0.6305,-0.0317,0.0703,2.2051034,-78.532616,183.78104,186.57301,0.0834,-0.9697,0.1992,0.153,-0.264,-0.002,4.499,-16.337,20.699,51
0.773,-0.6296,-0.0322,0.0701,2.3673913,-78.39732,183.65924,186.48572,0.0708,-0.9082,0.2255,0.096,0.061,-0.007,4.499,-16.337,20.699,51
0.7733,-0.6294,-0.0314,0.0694,2.546494,-78.353745,183.68634,186.47928,0.0712,-0.8754,0.227,0.053,0.217,0.011,4.499,-16.337,20.699,51
0.7734,-0.6295,-0.0299,0.0683,2.8000846,-78.347755,183.77585,186.49716,0.0649,-0.8554,0.2358,0.013,0.384,0.026,4.499,-16.337,20.699,51
0.7735,-0.6298,-0.0254,0.0648,3.7897458,-78.34427,184.02362,186.52196,-0.0009,-0.8422,0.2285,0.002,0.636,0.009,4.499,-16.337,20.699,51
0.7739,-0.63,-0.0206,0.0605,4.106958,-78.30941,184.21461,186.46371,-0.0874,-0.8271,0.2167,0.046,0.656,-0.042,4.499,-16.337,20.699,51
0.7742,-0.6299,-0.0185,0.0585,4.3558,-78.26881,184.2802,186.42049,-0.1088,-0.8261,0.2236,0.071,0.582,-0.067,4.499,-16.337,20.699,51
0.7745,-0.6297,-0.017,0.0568,4.536659,-78.2228,184.29234,186.3493,-0.1357,-0.8095,0.2299,0.084,0.465,-0.08,3.899,-13.337,22.349,51
0.7747,-0.6295,-0.0161,0.0553,4.641661,-78.18773,184.24167,186.23586,-0.1538,-0.8208,0.2304,0.057,0.337,-0.106,3.899,-13.337,22.349,51
0.7749,-0.6295,-0.0156,0.0544,4.6739826,-78.17188,184.20561,186.16212,-0.1523,-0.8178,0.229,0.033,0.194,-0.096,3.899,-13.337,22.349,51
0.7748,-0.6296,-0.0156,0.0538,4.643662,-78.18925,184.1368,186.07393,-0.1474,-0.809,0.2338,-0.02,0.072,-0.091,3.899,-13.337,22.349,51
0.7747,-0.6298,-0.016,0.0536,4.5609217,-78.21721,184.05763,185.99632,-0.1308,-0.8222,0.2387,-0.065,-0.039,-0.084,3.899,-13.337,22.349,51
0.7741,-0.6305,-0.0173,0.0538,4.384069,-78.33047,183.9054,185.87016,-0.0805,-0.8251,0.2568,-0.109,-0.127,-0.055,3.899,-13.337,22.349,51
0.7733,-0.6314,-0.0188,0.0541,4.238042,-78.47666,183.7402,185.73396,-0.041,-0.8266,0.2778,-0.141,-0.122,-0.081,3.899,-13.337,22.349,51
0.7725,-0.6323,-0.0198,0.0535,4.2489557,-78.62093,183.54057,185.52414,0.0122,-0.8012,0.3125,-0.12,0.01,-0.116,3.899,-13.337,22.349,51
0.772,-0.633,-0.0197,0.0521,4.3590565,-78.7205,183.40036,185.32846,0.017,-0.7998,0.31,-0.084,0.112,-0.082,3.899,-13.337,22.349,51
0.7717,-0.6335,-0.0193,0.0517,4.416534,-78.78509,183.41994,185.31725,-0.0019,-0.8417,0.2998,-0.106,0.131,0.004,3.899,-13.337,22.349,51
0.7712,-0.634,-0.0184,0.0518,4.431582,-78.861,183.57625,185.44206,-0.0146,-0.9013,0.2607,-0.175,0.122,0.145,3.899,-13.337,22.349,51
0.7704,-0.635,-0.0173,0.0527,4.438278,-79.00043,183.86824,185.71014,-0.0371,-0.9658,0.2412,-0.274,0.079,0.295,3.899,-13.337,22.349,51
0.7692,-0.6364,-0.016,0.0541,4.4243784,-79.20137,184.26143,186.07913,-0.0537,-1.0366,0.2124,-0.347,0.021,0.4,3.899,-13.337,22.349,51
0.768,-0.6377,-0.015,0.0557,4.4020977,-79.39375,184.63579,186.44322,-0.0747,-1.0693,0.2099,-0.348,-0.036,0.396,3.899,-13.337,22.349,51
0.7672,-0.6386,-0.0145,0.0569,4.4107594,-79.52519,184.87862,186.68605,-0.0639,-1.0717,0.2216,-0.264,-0.058,0.268,3.899,-13.337,22.349,51
0.7668,-0.6391,-0.0142,0.0573,4.4778237,-79.59531,184.98387,186.78406,-0.0332,-1.0737,0.2631,-0.123,-0.014,0.098,3.899,-13.337,22.349,51
0.7667,-0.6392,-0.0137,0.057,4.642235,-79.60851,185.02391,186.80199,0.0009,-1.0917,0.2963,-0.012,0.11,0.024,4.049,-6.887,21.749,51
0.7666,-0.6394,-0.0124,0.0564,4.9307575,-79.62524,185.1469,186.87462,0.0097,-1.1445,0.3037,-0.03,0.294,0.078,4.049,-6.887,21.749,51
0.765,-0.6415,-0.0066,0.0554,5.706765,-79.88209,185.93373,187.45839,-0.0708,-1.3017,0.2495,-0.318,0.597,0.398,4.049,-6.887,21.749,51
0.7636,-0.6432,-0.003,0.0552,6.260715,-80.10078,186.48653,187.89189,-0.1386,-1.3334,0.1787,-0.424,0.614,0.462,4.049,-6.887,21.749,51
0.7611,-0.6463,0.0011,0.0539,6.29618,-80.520294,187.01279,188.2416,-0.2226,-1.249,0.0971,-0.326,0.326,0.048,4.049,-6.887,21.749,51
0.7607,-0.6468,0.0008,0.0528,6.2266803,-80.60269,186.84221,188.043,-0.1943,-1.2158,0.0917,-0.146,0.113,-0.195,4.049,-6.887,21.749,51
0.7608,-0.6467,-0.0002,0.0521,6.1059585,-80.60062,186.60197,187.80957,-0.1596,-1.1777,0.0986,0.026,-0.069,-0.264,4.049,-6.887,21.749,51
0.7612,-0.6464,-0.0013,0.0521,5.970033,-80.55591,186.4277,187.6655,-0.1367,-1.1728,0.1137,0.089,-0.184,-0.156,4.049,-6.887,21.749,51
0.761,-0.6462,-0.005,0.0564,5.144214,-80.569756,186.41666,187.8408,-0.1821,-1.2119,0.0566,-0.027,-0.53,0.074,4.049,-6.887,21.749,51
0.7612,-0.6457,-0.0077,0.0583,4.699302,-80.52903,186.24281,187.78047,-0.1411,-1.1899,0.0747,0.062,-0.674,-0.068,4.049,-6.887,21.749,51
0.7618,-0.6449,-0.0111,0.0599,4.2802687,-80.43959,185.91608,187.5841,-0.0717,-1.1694,0.1254,0.173,-0.742,-0.207,4.049,-6.887,21.749,51
0.7625,-0.6438,-0.0144,0.061,3.948594,-80.315956,185.53636,187.3275,0.0029,-1.1362,0.1738,0.233,-0.683,-0.283,4.049,-6.887,21.749,51
0.7633,-0.6428,-0.0171,0.0616,3.718707,-80.18878,185.18338,187.07335,0.0439,-1.1079,0.2026,0.23,-0.522,-0.267,4.049,-6.887,21.749,51
0.7646,-0.6412,-0.021,0.0612,3.4951828,-79.98073,184.51324,186.5208,0.0195,-1.0083,0.1948,0.037,-0.059,-0.12,4.049,-6.887,21.749,51
0.7646,-0.6411,-0.0216,0.0609,3.4127483,-79.97628,184.38571,186.40105,-0.018,-0.9833,0.1669,0.007,-0.062,-0.118,6.899,-2.837,21.899,51
0.7646,-0.6411,-0.0225,0.0608,3.0172257,-79.98199,184.23949,186.27303,-0.0571,-0.9667,0.1538,0.001,-0.141,-0.136,6.899,-2.837,21.899,51
0.7646,-0.6408,-0.026,0.0617,2.6924644,-79.9744,183.82681,185.96901,-0.0849,-0.8989,0.1088,0.029,-0.41,-0.188,6.899,-2.837,21.899,51
0.7648,-0.6404,-0.0287,0.0627,2.3071249,-79.93747,183.54128,185.78069,-0.0664,-0.8627,0.0908,0.055,-0.553,-0.214,6.899,-2.837,21.899,51
0.7651,-0.6399,-0.032,0.0638,1.8768725,-79.88596,183.17622,185.53308,-0.0522,-0.8383,0.0776,0.092,-0.668,-0.247,6.899,-2.837,21.899,51
0.7654,-0.6391,-0.0356,0.0652,1.4442782,-79.8078,182.79993,185.2958,-0.0385,-0.8203,0.0756,0.126,-0.751,-0.276,6.899,-2.837,21.899,51
0.7665,-0.6371,-0.0431,0.068,0.7723489,-79.57538,181.99046,184.79236,-0.0302,-0.8134,0.0776,0.206,-0.791,-0.284,6.899,-2.837,21.899,51
0.7671,-0.6359,-0.0467,0.0695,0.69160724,-79.43531,181.61685,184.57967,-0.0385,-0.8188,0.0615,0.22,-0.766,-0.246,6.899,-2.837,21.899,51
0.7676,-0.6349,-0.0499,0.071,0.99847794,-79.31843,181.30632,184.41689,-0.0283,-0.8095,0.0629,0.212,-0.716,-0.199,6.899,-2.837,21.899,51
0.7682,-0.6334,-0.0551,0.074,1.1824685,-79.15516,180.87418,184.23781,-0.0239,-0.8281,0.0561,0.104,-0.571,-0.081,6.899,-2.837,21.899,51
0.7683,-0.6329,-0.0569,0.0753,1.299112,-79.10886,180.75778,184.21494,-0.0278,-0.8359,0.0571,0.07,-0.447,-0.032,6.899,-2.837,21.899,51
0.7684,-0.6326,-0.0579,0.0763,1.3657298,-79.07898,180.72586,184.24396,-0.0185,-0.8476,0.0541,0.051,-0.308,0.012,6.899,-2.837,21.899,51
0.7685,-0.6324,-0.0584,0.0769,1.370597,-79.05638,180.7206,184.27405,-0.0083,-0.8481,0.0537,0.05,-0.156,0.031,6.899,-2.837,21.899,51
0.7686,-0.6322,-0.0583,0.0772,1.3261476,-79.03259,180.76747,184.33334,-0.0146,-0.8569,0.0527,0.056,-0.009,0.045,6.899,-2.837,21.899,51
0.7689,-0.632,-0.0577,0.0769,1.1820031,-78.991745,180.81276,184.36578,-0.0141,-0.8632,0.0664,0.08,0.128,0.042,6.899,-2.837,21.899,51
0.7699,-0.6312,-0.0552,0.0751,1.1731541,-78.84046,180.93922,184.41713,-0.0371,-0.8686,0.0908,0.152,0.37,-0.016,6.899,-2.837,21.899,51
0.7706,-0.6306,-0.0537,0.0736,1.2502713,-78.73028,180.96202,184.38652,-0.0566,-0.875,0.0922,0.207,0.43,-0.059,9.599,0.763,14.549,51
0.7725,-0.6289,-0.0509,0.0707,1.5270444,-78.42991,180.97934,184.31984,-0.0859,-0.8715,0.1074,0.269,0.382,-0.075,9.599,0.763,14.549,51
0.7739,-0.6275,-0.0486,0.0696,1.6548316,-78.19844,181.15057,184.45099,-0.1118,-0.9521,0.1113,0.234,0.187,0.039,9.599,0.763,14.549,51
0.7743,-0.627,-0.0478,0.07,1.6322123,-78.124985,181.30397,184.61115,-0.1186,-1.0126,0.1147,0.177,0.058,0.127,9.599,0.763,14.549,51
0.7744,-0.6268,-0.0472,0.0711,1.6253518,-78.10167,181.5184,184.84691,-0.1093,-1.0781,0.1274,0.113,-0.049,0.208,9.599,0.763,14.549,51
0.7746,-0.6263,-0.0468,0.0734,1.6714141,-78.046936,181.83952,185.23784,-0.0595,-1.1396,0.1562,0.066,-0.12,0.176,9.599,0.763,14.549,51
0.7749,-0.6259,-0.0469,0.0738,1.7848097,-77.99067,181.86241,185.28839,-0.0239,-1.1381,0.1811,0.105,-0.071,0.04,9.599,0.763,14.549,51
0.7755,-0.6252,-0.0472,0.0732,1.9832944,-77.88435,181.73001,185.17093,0.0214,-1.1074,0.1894,0.176,0.014,-0.146,9.599,0.763,14.549,51
0.7787,-0.6218,-0.0467,0.0687,2.597041,-77.33879,181.19115,184.60312,0.0961,-1.1176,0.2216,0.316,0.307,-0.149,9.599,0.763,14.549,51
0.7794,-0.6211,-0.045,0.0678,2.6848462,-77.22085,181.31754,184.67775,0.0664,-1.1528,0.2026,0.217,0.372,0.054,9.599,0.763,14.549,51
0.78,-0.621,-0.0384,0.0661,3.376758,-77.149475,182.07481,185.20326,0.0131,-1.1328,0.2011,0.054,0.446,0.116,9.599,0.763,14.549,51
0.7814,-0.6197,-0.0353,0.063,3.6904228,-76.919525,182.13617,185.11957,0.1035,-1.0913,0.2773,0.264,0.45,-0.088,9.599,0.763,14.549,51
0.7824,-0.6187,-0.0332,0.0614,4.04153,-76.74992,182.23463,185.1349,0.1523,-1.0913,0.3168,0.312,0.542,-0.016,17.099,4.213,8.999,51
0.7833,-0.6179,-0.0301,0.0599,4.379013,-76.60158,182.49419,185.27783,0.1665,-1.0922,0.3374,0.256,0.679,0.146,17.099,4.213,8.999,51
0.7836,-0.6178,-0.026,0.0587,4.688779,-76.55346,182.94846,185.5759,0.143,-1.1108,0.3447,0.092,0.803,0.305,17.099,4.213,8.999,51
0.783,-0.619,-0.0179,0.0564,5.2554483,-76.66213,183.88397,186.17393,0.0546,-1.122,0.3286,-0.12,0.776,0.316,17.099,4.213,8.999,51
0.7827,-0.6196,-0.0149,0.0552,5.4702907,-76.72033,184.19334,186.34592,0.0268,-1.1044,0.3286,-0.095,0.64,0.187,17.099,4.213,8.999,51
0.7829,-0.6196,-0.0118,0.0534,5.676599,-76.68894,184.43575,186.4409,0.0131,-1.0131,0.3242,0.033,0.273,0.039,17.099,4.213,8.999,51
0.783,-0.6195,-0.0113,0.0532,5.6598916,-76.66978,184.48328,186.46913,0.0185,-0.9887,0.3164,0.018,0.099,0.058,17.099,4.213,8.999,51
0.783,-0.6194,-0.0113,0.0536,5.575928,-76.65969,184.528,186.52768,0.0004,-0.9697,0.2822,-0.016,-0.034,0.094,17.099,4.213,8.999,51
0.7826,-0.6198,-0.0123,0.0554,5.278561,-76.726524,184.59789,186.67632,-0.0463,-0.9604,0.2314,-0.076,-0.238,0.064,17.099,4.213,8.999,51
0.7824,-0.6198,-0.0154,0.0573,4.8880177,-76.75832,184.3671,186.59563,-0.0859,-0.9282,0.1982,0.013,-0.417,-0.113,17.099,4.213,8.999,51
0.7831,-0.6187,-0.0204,0.0586,4.5554447,-76.639824,183.76718,186.20622,-0.0673,-0.871,0.1958,0.13,-0.503,-0.247,17.099,4.213,8.999,51
0.7835,-0.618,-0.0229,0.0591,4.433451,-76.56227,183.44797,185.99135,-0.0458,-0.8515,0.2133,0.131,-0.471,-0.244,17.099,4.213,8.999,51
0.7838,-0.6175,-0.025,0.0595,4.358307,-76.5068,183.1791,185.80849,-0.0195,-0.8291,0.2211,0.113,-0.397,-0.214,17.099,4.213,8.999,51
0.7841,-0.6171,-0.0266,0.0597,4.3194795,-76.45729,182.9613,185.65422,-0.0043,-0.8222,0.2314,0.067,-0.287,-0.167,17.099,4.213,8.999,51
0.7843,-0.6168,-0.0278,0.0593,4.353037,-76.42172,182.73582,185.45883,0.0019,-0.8056,0.2309,0.015,-0.009,-0.088,24.599,2.713,4.199,51
0.7843,-0.6169,-0.0277,0.0589,4.4245195,-76.43037,182.70598,185.41158,0.0043,-0.7822,0.2333,-0.018,0.074,-0.065,24.599,2.713,4.199,51
0.7842,-0.6172,-0.0262,0.0566,4.8834987,-76.45843,182.66653,185.24797,0.0004,-0.7919,0.2412,-0.024,0.328,-0.082,24.599,2.713,4.199,51
0.7842,-0.6176,-0.0234,0.0535,5.379041,-76.48337,182.72433,185.11684,-0.0278,-0.7929,0.2421,-0.032,0.439,-0.073,24.599,2.713,4.199,51
0.7832,-0.6197,-0.0143,0.0459,5.972806,-76.707466,183.20963,185.05527,-0.0854,-0.8632,0.3295,-0.086,0.23,-0.074,24.599,2.713,4.199,51
0.7832,-0.6199,-0.0138,0.0449,5.004486,-76.72439,183.16933,184.96664,-0.0756,-0.8471,0.3427,-0.081,0.195,-0.104,24.599,2.713,4.199,51
0.7781,-0.6258,-0.0156,0.0516,4.630689,-77.61673,183.79625,185.74431,-0.0825,-1.0561,0.226,-0.485,-0.473,0.374,31.049,1.513,2.399,51
0.7755,-0.6284,-0.0188,0.0563,4.0000696,-78.04709,183.94083,186.0589,-0.0126,-1.0683,0.2578,-0.328,-0.545,0.102,31.049,1.513,2.399,51
0.7749,-0.629,-0.0207,0.0576,3.8202457,-78.1532,183.83038,186.02324,0.0556,-1.0693,0.2929,-0.198,-0.462,-0.039,31.049,1.513,2.399,51
0.7744,-0.6295,-0.022,0.0582,3.757427,-78.24055,183.7229,185.95564,0.0942,-1.1005,0.3193,-0.139,-0.293,-0.053,31.049,1.513,2.399,51
0.7739,-0.6301,-0.0221,0.0586,3.8022473,-78.3302,183.7693,186.00221,0.0917,-1.1455,0.3203,-0.178,-0.057,0.057,31.049,1.513,2.399,51
0.7716,-0.633,-0.0187,0.059,4.150983,-78.73316,184.38332,186.47318,0.0131,-1.3134,0.2543,-0.406,0.343,0.337,31.049,1.513,2.399,51
0.7701,-0.6348,-0.0161,0.0591,4.627391,-78.98356,184.82211,186.80833,-0.0566,-1.353,0.1977,-0.455,0.423,0.382,31.049,1.513,2.399,51
0.7668,-0.6392,-0.0132,0.056,4.52497,-79.6002,184.97382,186.71466,-0.0761,-1.2143,0.1118,0.12,-0.026,-0.215,31.049,1.513,2.399,51
0.7675,-0.6383,-0.0139,0.0558,4.217266,-79.475235,184.82503,186.59578,-0.082,-1.1953,0.1098,0.214,-0.108,-0.14,31.049,1.513,2.399,51
0.7687,-0.6368,-0.0162,0.0573,3.9521258,-79.267654,184.63289,186.53125,-0.1044,-1.1791,0.1147,0.173,-0.356,-0.019,31.049,1.513,2.399,51
0.7692,-0.636,-0.0182,0.0586,3.6257093,-79.17123,184.47856,186.47757,-0.0996,-1.1738,0.1289,0.168,-0.503,-0.073,31.049,1.513,2.399,51
0.7698,-0.635,-0.0209,0.0599,3.314773,-79.05405,184.21664,186.33914,-0.06,-1.1499,0.1635,0.22,-0.597,-0.163,31.049,1.513,2.399,51
0.7707,-0.6338,-0.0238,0.0609,3.0771654,-78.89808,183.88205,186.13309,0.0039,-1.1235,0.2006,0.263,-0.602,-0.23,31.049,1.513,2.399,51
0.7715,-0.6325,-0.0263,0.0616,2.9438987,-78.73754,183.57076,185.93472,0.059,-1.0839,0.228,0.28,-0.493,-0.233,31.649,-3.737,3.599,51
0.7723,-0.6315,-0.0282,0.0617,2.9018676,-78.60002,183.27974,185.72107,0.0786,-1.0375,0.2358,0.223,-0.32,-0.193,31.649,-3.737,3.599,51
0.7728,-0.6309,-0.0292,0.0615,2.9137993,-78.51506,183.09465,185.57214,0.082,-0.9912,0.2416,0.134,-0.128,-0.139,31.649,-3.737,3.599,51
0.773,-0.6307,-0.0296,0.061,2.9627879,-78.48457,182.97098,185.45049,0.0659,-0.9638,0.2216,0.048,0.015,-0.09,31.649,-3.737,3.599,51
0.773,-0.6307,-0.0295,0.0604,2.9980335,-78.48418,182.91397,185.37396,0.0273,-0.9291,0.2104,-0.016,0.093,-0.048,31.649,-3.737,3.599,51
0.7729,-0.6309,-0.0293,0.06,2.9925437,-78.50838,182.89919,185.33821,-0.0209,-0.9155,0.1889,-0.048,0.079,-0.046,31.649,-3.737,3.599,51
0.7727,-0.6311,-0.0294,0.0598,2.1747596,-78.54108,182.8654,185.29587,-0.0522,-0.895,0.1694,-0.044,0.011,-0.063,31.649,-3.737,3.599,51
0.7739,-0.6288,-0.0389,0.0638,1.9526817,-78.28383,181.90262,184.75215,-0.0649,-0.8178,0.0805,0.162,-0.695,-0.115,31.649,-3.737,3.599,51
0.7746,-0.627,-0.0451,0.0682,1.7623944,-78.094475,181.48323,184.67024,-0.039,-0.8461,0.08,0.169,-0.806,-0.056,31.649,-3.737,3.599,51
0.775,-0.626,-0.0482,0.0705,1.8367751,-77.98721,181.28249,184.64694,-0.0224,-0.8549,0.0732,0.183,-0.79,-0.033,31.649,-3.737,3.599,51
0.7754,-0.625,-0.0509,0.0728,1.9973359,-77.8793,181.13959,184.67276,0.0019,-0.8598,0.0629,0.194,-0.74,-0.004,31.649,-3.737,3.599,51
0.7759,-0.624,-0.0533,0.0749,2.1902215,-77.763306,181.01497,184.70628,0.0175,-0.8764,0.0722,0.208,-0.656,0.011,31.649,-3.737,3.599,51
0.7764,-0.623,-0.0552,0.0767,2.4903667,-77.645905,180.9275,184.75618,0.0273,-0.8623,0.0776,0.21,-0.552,0.025,31.649,-3.737,3.599,51
0.7772,-0.6215,-0.0573,0.0791,2.5757234,-77.46469,180.86877,184.87726,0.0546,-0.8481,0.0898,0.16,-0.252,0.046,31.649,-3.737,3.599,51
0.778,-0.6205,-0.0569,0.0794,2.637668,-77.3184,180.93672,184.98085,0.04,-0.8457,0.1079,0.128,0.088,0.027,29.699,-10.037,5.549,51
0.779,-0.6196,-0.0547,0.0777,2.6751938,-77.157684,181.03423,185.00192,0.0161,-0.8393,0.1191,0.145,0.348,-0.026,29.699,-10.037,5.549,51
0.7813,-0.6176,-0.0501,0.0733,3.0180557,-76.79372,181.14009,184.919,-0.0732,-0.8618,0.1181,0.241,0.417,-0.049,29.699,-10.037,5.549,51
0.7822,-0.6168,-0.0488,0.0723,3.1078043,-76.652695,181.19278,184.93219,-0.0898,-0.8725,0.1054,0.244,0.328,-0.008,29.699,-10.037,5.549,51
0.7827,-0.6162,-0.0477,0.0721,3.1755078,-76.56044,181.31558,185.0359,-0.0961,-0.9106,0.0854,0.231,0.188,0.043,29.699,-10.037,5.549,51
0.7831,-0.6157,-0.0471,0.0725,3.3344305,-76.486565,181.43657,185.1679,-0.0922,-0.9506,0.0932,0.201,0.04,0.099,29.699,-10.037,5.549,51
0.7839,-0.6143,-0.0469,0.0757,3.4328449,-76.30958,181.79893,185.6684,-0.0117,-1.0864,0.1401,0.163,-0.166,0.168,29.699,-10.037,5.549,51
0.7857,-0.6121,-0.0463,0.0755,3.7665784,-75.9812,181.8089,185.72604,0.0805,-1.2016,0.2319,0.204,0.188,-0.066,29.699,-10.037,5.549,51
0.7866,-0.6116,-0.0421,0.0727,3.9382658,-75.85399,182.08353,185.80067,0.0629,-1.3334,0.2998,0.063,0.638,0.074,29.699,-10.037,5.549,51
0.7867,-0.612,-0.0385,0.0705,4.023972,-75.86711,182.36142,185.88719,0.0166,-1.3535,0.3149,-0.014,0.864,0.099,29.699,-10.037,5.549,51
0.7862,-0.6131,-0.0344,0.068,4.1526904,-75.98308,182.69447,185.98434,-0.0268,-1.4252,0.3134,-0.195,0.992,0.136,29.699,-10.037,5.549,51
0.7855,-0.6145,-0.0304,0.0653,4.310963,-76.14012,182.99612,186.04213,-0.0625,-1.3906,0.3032,-0.264,1.002,0.074,29.099,-15.737,8.249,51
0.7849,-0.6158,-0.0277,0.062,4.5423055,-76.28769,183.03784,185.86646,-0.0727,-1.2646,0.3144,-0.27,0.879,-0.172,29.099,-15.737,8.249,51
0.7851,-0.6164,-0.0264,0.0538,5.053533,-76.32353,182.3008,184.81894,0.0361,-1.0537,0.3447,0.016,0.534,-0.672,29.099,-15.737,8.249,51
0.7858,-0.6158,-0.0273,0.05,5.3161097,-76.22163,181.72575,184.1647,0.0766,-0.9658,0.3369,0.118,0.334,-0.688,29.099,-15.737,8.249,51
0.7874,-0.6138,-0.0306,0.0468,5.21136,-75.93182,180.85297,183.33345,0.0839,-0.83,0.2861,0.239,-0.204,-0.357,29.099,-15.737,8.249,51
0.7878,-0.613,-0.0328,0.048,4.9225636,-75.8362,180.65932,183.26303,0.0659,-0.8178,0.2519,0.174,-0.51,-0.105,29.099,-15.737,8.249,51
0.7878,-0.6127,-0.0355,0.0511,4.461244,-75.81804,180.61447,183.40894,0.0507,-0.8315,0.2172,0.033,-0.832,0.167,29.099,-15.737,8.249,51
0.7857,-0.614,-0.0424,0.0613,3.4625185,-76.11462,180.79787,184.0942,0.0693,-0.9262,0.1396,-0.27,-1.297,0.491,29.099,-15.737,8.249,51
0.7843,-0.6149,-0.0465,0.0671,3.2368689,-76.31515,180.88579,184.45929,0.1147,-0.9785,0.1113,-0.27,-1.385,0.487,29.099,-15.737,8.249,51
0.7832,-0.6153,-0.0507,0.0723,3.2556794,-76.44967,180.88503,184.72809,0.1733,-1.0034,0.102,-0.158,-1.318,0.393,29.099,-15.737,8.249,51
0.7827,-0.6152,-0.0544,0.0763,3.400463,-76.49352,180.80801,184.88412,0.2338,-1.017,0.125,-0.008,-1.079,0.276,29.099,-15.737,8.249,51
0.7827,-0.6146,-0.0569,0.0787,3.532831,-76.45062,180.70985,184.9515,0.2866,-1.0166,0.1625,0.119,-0.707,0.174,29.099,-15.737,8.249,51
0.7831,-0.6139,-0.0579,0.0795,3.5607748,-76.3631,180.6406,184.96112,0.3129,-0.9975,0.1962,0.173,-0.235,0.104,29.099,-15.737,8.249,51
0.7836,-0.6135,-0.0571,0.0786,3.5105503,-76.287476,180.64252,184.92749,0.288,-0.9677,0.2241,0.144,0.276,0.062,29.099,-15.737,8.249,51
0.7841,-0.6134,-0.0544,0.0764,3.4662676,-76.232254,180.77704,184.91924,0.2333,-0.9472,0.2465,0.089,0.735,0.055,29.099,-15.737,8.249,51
0.7845,-0.6136,-0.0503,0.073,3.5190673,-76.20555,180.98431,184.89325,0.1791,-0.9321,0.2495,0.037,1.108,0.043,29.099,-15.737,8.249,51
0.7848,-0.6141,-0.0452,0.069,3.7365286,-76.20973,181.27385,184.89143,0.1015,-0.8984,0.2363,-0.014,1.354,0.045,29.099,-15.737,8.249,51
0.785,-0.6147,-0.0394,0.0648,4.094235,-76.22786,181.64436,184.94003,0.0419,-0.8662,0.2368,-0.044,1.477,0.049,26.399,-22.187,12.899,51
0.785,-0.6155,-0.0336,0.0604,4.556978,-76.27758,181.99635,184.95905,0.0039,-0.8427,0.2299,-0.074,1.505,0.044,26.399,-22.187,12.899,51
0.7848,-0.617,-0.0226,0.0522,5.5879836,-76.38386,182.68,185.02019,-0.0766,-0.812,0.2333,-0.095,1.368,0.039,26.399,-22.187,12.899,51
0.7847,-0.6176,-0.0178,0.0487,6.063939,-76.425766,182.98578,185.06003,-0.1181,-0.8134,0.2236,-0.091,1.23,0.038,26.399,-22.187,12.899,51
0.7848,-0.6181,-0.0105,0.0429,6.740783,-76.434746,183.38918,185.05232,-0.2041,-0.8364,0.1855,0.035,0.864,-0.017,26.399,-22.187,12.899,51
0.7849,-0.6181,-0.0087,0.0412,6.8608327,-76.4211,183.45601,185.01096,-0.2197,-0.8139,0.2089,0.021,0.5,-0.055,26.399,-22.187,12.899,51
0.7849,-0.6181,-0.0082,0.04,6.901144,-76.42083,183.39182,184.89354,-0.1845,-0.7998,0.2514,-0.006,0.244,-0.123,26.399,-22.187,12.899,51
0.7848,-0.6184,-0.0083,0.0391,6.8671894,-76.45732,183.27768,184.75093,-0.1557,-0.8129,0.2646,-0.061,0.099,-0.161,26.399,-22.187,12.899,51
0.7844,-0.6189,-0.0088,0.0386,6.769783,-76.53426,183.15521,184.62158,-0.1289,-0.8212,0.2802,-0.123,-0.03,-0.144,26.399,-22.187,12.899,51
0.7838,-0.6196,-0.0096,0.0385,6.5607047,-76.64403,183.03796,184.51619,-0.0869,-0.8208,0.31,-0.213,-0.091,-0.107,26.399,-22.187,12.899,51
0.7811,-0.623,-0.0106,0.0386,6.4550943,-77.14635,182.95367,184.4195,-0.0419,-0.8681,0.3217,-0.35,-0.016,0,26.399,-22.187,12.899,51
0.7802,-0.6242,-0.0105,0.0384,6.460758,-77.318054,182.96225,184.4032,-0.0361,-0.8598,0.3271,-0.353,0.05,-0.01,26.399,-22.187,12.899,51
0.7794,-0.6252,-0.0102,0.038,6.512136,-77.46407,182.97421,184.38112,-0.0263,-0.8461,0.3398,-0.322,0.111,-0.033,26.399,-22.187,12.899,51
0.7785,-0.6263,-0.0097,0.0372,6.58693,-77.625916,182.96991,184.32428,-0.0283,-0.8266,0.3491,-0.296,0.183,-0.058,26.399,-22.187,12.899,51
0.7762,-0.6294,-0.008,0.0344,6.806046,-78.06476,182.93059,184.11862,-0.0288,-0.7514,0.3208,-0.249,0.203,-0.046,24.599,-23.987,19.049,51
0.7754,-0.6304,-0.0074,0.034,6.837323,-78.20946,182.98502,184.13338,-0.0253,-0.7548,0.3144,-0.273,0.162,0.025,24.599,-23.987,19.049,51
0.7719,-0.6346,-0.004,0.0363,6.7523685,-78.812904,183.82663,184.89757,-0.0839,-0.9589,0.2529,-0.461,0.035,0.415,24.599,-23.987,19.049,51
0.7702,-0.6365,-0.0026,0.0384,6.6926746,-79.08981,184.32181,185.3895,-0.0932,-1.0424,0.226,-0.519,-0.039,0.51,24.599,-23.987,19.049,51
0.7684,-0.6385,-0.0014,0.0406,6.637679,-79.38185,184.80609,185.87602,-0.0966,-1.0947,0.206,-0.538,-0.095,0.505,24.599,-23.987,19.049,51
0.7657,-0.6416,-0.0002,0.0432,6.713404,-79.83309,185.36635,186.43329,-0.0678,-1.1235,0.247,-0.35,-0.021,0.206,24.599,-23.987,19.049,51
0.765,-0.6425,0.0004,0.0431,6.924879,-79.95892,185.46068,186.49942,-0.0385,-1.1542,0.2797,-0.222,0.133,0.08,24.599,-23.987,19.049,51
0.7644,-0.6432,0.002,0.0423,7.2758417,-80.0541,185.61389,186.58618,-0.0234,-1.1948,0.3085,-0.181,0.357,0.09,24.599,-23.987,19.049,51
0.7622,-0.6459,0.0089,0.0403,8.277221,-80.39695,186.44754,187.18231,-0.0883,-1.3535,0.2563,-0.407,0.768,0.4,24.599,-23.987,19.049,51
0.7603,-0.6481,0.0135,0.0398,8.768758,-80.68238,187.11937,187.71892,-0.1665,-1.3818,0.1884,-0.548,0.81,0.552,24.599,-23.987,19.049,51
0.756,-0.653,0.0206,0.039,9.402502,-81.3445,188.1927,188.58603,-0.2656,-1.2875,0.0996,-0.641,0.549,0.308,24.599,-23.987,19.049,51
0.7523,-0.6574,0.0201,0.036,9.367745,-82.03047,187.82338,188.13948,-0.1264,-1.0693,0.124,-0.232,-0.05,-0.313,24.599,-23.987,19.049,51
0.7519,-0.6579,0.0186,0.0354,9.253322,-82.12682,187.52771,187.8582,-0.1025,-1.0341,0.1303,-0.132,-0.139,-0.302,24.599,-23.987,19.049,51
0.7517,-0.6583,0.0172,0.0354,9.104751,-82.193245,187.32175,187.67719,-0.1113,-1.0356,0.1274,-0.09,-0.216,-0.21,20.699,-28.037,26.249,51
0.7513,-0.6587,0.0158,0.0361,8.8663,-82.269394,187.21115,187.60443,-0.1538,-1.0678,0.1142,-0.109,-0.319,-0.105,20.699,-28.037,26.249,51
0.7509,-0.6591,0.0139,0.0376,8.551506,-82.34585,187.13058,187.58615,-0.1958,-1.1342,0.0781,-0.141,-0.477,-0.021,20.699,-28.037,26.249,51
0.7505,-0.6595,0.0115,0.0397,8.140105,-82.424095,187.0539,187.59175,-0.2153,-1.1704,0.0683,-0.147,-0.66,-0.015,20.699,-28.037,26.249,51
0.7501,-0.6598,0.0082,0.0421,7.200762,-82.50183,186.88,187.52173,-0.1914,-1.1713,0.0629,-0.13,-0.83,-0.074,20.699,-28.037,26.249,51
0.7499,-0.6598,0.0004,0.0467,6.8202157,-82.57211,186.30902,187.18056,-0.0527,-1.1098,0.1069,-0.028,-0.9,-0.183,20.699,-28.037,26.249,51
0.7495,-0.6599,-0.0056,0.0499,6.3423834,-82.65167,185.83011,186.86679,0.0278,-1.062,0.1416,-0.086,-0.596,-0.092,20.699,-28.037,26.249,51
0.7491,-0.6603,-0.0074,0.0512,6.2196307,-82.72671,185.7401,186.82562,0.0131,-1.0307,0.1376,-0.132,-0.445,-0.008,20.699,-28.037,26.249,51
0.7485,-0.6609,-0.0087,0.0525,6.134445,-82.829895,185.73189,186.85233,-0.0175,-1.0097,0.1259,-0.196,-0.363,0.033,20.699,-28.037,26.249,51
0.7477,-0.6617,-0.0099,0.0537,6.0136256,-82.96503,185.73175,186.87778,-0.0556,-1.0058,0.103,-0.221,-0.348,0.032,20.699,-28.037,26.249,51
0.747,-0.6623,-0.0114,0.055,5.841963,-83.077545,185.69608,186.87675,-0.083,-0.977,0.0859,-0.194,-0.395,-0.015,20.699,-28.037,26.249,51
0.7465,-0.6627,-0.0134,0.0563,5.6088033,-83.16162,185.57903,186.80606,-0.0844,-0.9438,0.0854,-0.138,-0.486,-0.077,20.699,-28.037,26.249,51
0.7462,-0.6629,-0.016,0.0577,5.32598,-83.21728,185.37845,186.66742,-0.0761,-0.9067,0.0747,-0.073,-0.58,-0.139,20.699,-28.037,26.249,51
0.7464,-0.6622,-0.0221,0.0606,4.659516,-83.176926,184.8265,186.28168,-0.0449,-0.8549,0.0678,0.066,-0.701,-0.203,20.699,-28.037,26.249,51
0.7468,-0.6616,-0.0254,0.0622,4.307096,-83.11207,184.5241,186.07861,-0.0493,-0.8388,0.0629,0.112,-0.734,-0.215,20.699,-28.037,26.249,51
0.7472,-0.6608,-0.0288,0.064,3.9641511,-83.029236,184.23041,185.89507,-0.0571,-0.8432,0.0478,0.141,-0.771,-0.197,20.699,-28.037,26.249,51
0.7481,-0.659,-0.0356,0.068,3.3182316,-82.83561,183.69058,185.59528,-0.0678,-0.871,0.0332,0.183,-0.815,-0.149,11.249,-30.437,31.799,51
0.7493,-0.6569,-0.0418,0.0724,2.8523176,-82.5886,183.28278,185.44693,-0.0625,-0.8837,0.0258,0.217,-0.768,-0.071,11.249,-30.437,31.799,51
0.7498,-0.6558,-0.0445,0.0746,2.7037752,-82.466705,183.13898,185.42957,-0.0546,-0.8901,0.0229,0.214,-0.708,-0.037,11.249,-30.437,31.799,51
0.7503,-0.6548,-0.0466,0.0767,2.5617452,-82.35162,183.07323,185.47766,-0.0454,-0.8867,0.0249,0.207,-0.618,0.01,11.249,-30.437,31.799,51
0.7531,-0.6511,-0.0487,0.0802,1.6317236,-81.832146,183.10425,185.76765,-0.0561,-0.8696,0.0366,0.203,0.174,-0.046,11.249,-30.437,31.799,51
0.7566,-0.6477,-0.0456,0.0764,1.5295832,-81.25879,182.96841,185.63388,-0.1152,-0.9077,0.0312,0.276,0.189,-0.027,11.249,-30.437,31.799,51
0.7587,-0.645,-0.0442,0.0792,1.286202,-80.86537,183.45491,186.25923,-0.0869,-1.122,0.0517,0.18,-0.185,0.162,11.249,-30.437,31.799,51
0.7606,-0.6425,-0.0455,0.0807,0.8763078,-80.51206,183.37637,186.33842,0.062,-1.1245,0.1079,0.241,-0.068,-0.106,5.249,-30.737,-28.937,51
0.7636,-0.6396,-0.0427,0.0766,0.9741858,-80.020226,183.18768,186.10298,0.1191,-1.1782,0.1381,0.29,0.538,-0.04,5.249,-30.737,-28.937,51
0.7645,-0.6389,-0.0397,0.0747,1.4028888,-79.87854,183.37344,186.20102,0.0737,-1.206,0.1259,0.257,0.719,0.08,5.249,-30.737,-28.937,51
0.7652,-0.6385,-0.0361,0.0727,1.8841243,-79.77469,183.64418,186.35544,0.0356,-1.1928,0.123,0.195,0.834,0.138,5.249,-30.737,-28.937,51
0.7659,-0.6382,-0.0324,0.0703,2.381154,-79.67836,183.88257,186.4603,0.0146,-1.1738,0.1406,0.165,0.891,0.111,5.249,-30.737,-28.937,51
0.7665,-0.6379,-0.0288,0.0676,2.907543,-79.58964,184.07162,186.50676,0.0327,-1.1611,0.1674,0.161,0.917,0.034,5.249,-30.737,-28.937,51
0.7672,-0.6375,-0.0252,0.0645,3.4942935,-79.48504,184.20964,186.49234,0.0634,-1.1206,0.2119,0.187,0.974,-0.031,5.249,-30.737,-28.937,51
0.7679,-0.6372,-0.0213,0.061,4.1596007,-79.388145,184.34544,186.45352,0.0957,-1.1137,0.2475,0.187,1.08,-0.053,5.249,-30.737,-28.937,51
0.7686,-0.6368,-0.0169,0.0571,5.5790186,-79.28021,184.50642,186.41573,0.0976,-1.1054,0.2871,0.178,1.201,-0.042,5.249,-30.737,-28.937,51
0.7693,-0.6369,-0.0072,0.0493,6.213147,-79.18908,184.98355,186.44823,0.038,-1.104,0.2851,0.049,1.269,0.025,5.249,-30.737,-28.937,51
0.7693,-0.6372,-0.0028,0.0459,6.691377,-79.19275,185.22372,186.48459,-0.0097,-1.0971,0.2773,-0.01,1.138,0.045,5.249,-30.737,-28.937,51
0.7691,-0.6376,0.0005,0.0433,6.9950223,-79.225586,185.40175,186.50621,-0.0546,-1.0864,0.2617,-0.063,0.889,0.035,5.249,-30.737,-28.937,51
0.7688,-0.638,0.0027,0.0418,7.089042,-79.27029,185.55205,186.55711,-0.0781,-1.0546,0.25,-0.108,0.549,0.039,5.249,-30.737,-28.937,51
0.7667,-0.6402,0.0002,0.0463,6.145281,-79.61984,185.78215,186.93651,-0.0146,-1.038,0.1865,-0.147,-0.562,0.141,1.499,-29.237,-24.437,51
0.7662,-0.6405,-0.0042,0.0506,5.4774933,-79.70389,185.66861,187.0335,0.0024,-1.0346,0.1538,-0.029,-0.628,0.033,1.499,-29.237,-24.437,51
0.7669,-0.6393,-0.0104,0.0533,4.8909016,-79.588326,185.05734,186.66002,0.0141,-0.9653,0.1835,0.114,-0.327,-0.162,1.499,-29.237,-24.437,51
0.7682,-0.6379,-0.0129,0.0515,5.007425,-79.3925,184.43274,186.07689,0.0083,-0.8574,0.2104,0.111,0.083,-0.187,1.499,-29.237,-24.437,51
0.7686,-0.6375,-0.0126,0.0502,5.201999,-79.32902,184.30879,185.91939,0.0004,-0.8344,0.2099,0.104,0.222,-0.168,1.499,-29.237,-24.437,51
0.769,-0.6372,-0.0117,0.0486,5.4394712,-79.27122,184.2385,185.79114,-0.0126,-0.811,0.2089,0.106,0.343,-0.144,1.499,-29.237,-24.437,51
0.7697,-0.6366,-0.009,0.0449,5.993145,-79.15879,184.17273,185.57127,-0.06,-0.7797,0.1967,0.095,0.486,-0.102,1.499,-29.237,-24.437,51
0.77,-0.6364,-0.0074,0.043,6.259159,-79.11388,184.17282,185.48438,-0.0825,-0.7817,0.2001,0.081,0.501,-0.097,1.499,-29.237,-24.437,51
0.7703,-0.6362,-0.0059,0.0412,6.4945917,-79.069534,184.17053,185.39978,-0.1152,-0.7812,0.2001,0.086,0.469,-0.09,1.499,-29.237,-24.437,51
0.771,-0.6356,-0.0036,0.0381,6.857775,-78.95942,184.12132,185.21788,-0.1347,-0.7988,0.2241,0.095,0.354,-0.114,1.499,-29.237,-24.437,51
0.7713,-0.6353,-0.0029,0.0368,6.9777946,-78.910355,184.06151,185.10901,-0.1445,-0.8076,0.228,0.094,0.275,-0.12,1.499,-29.237,-24.437,51
0.7715,-0.6351,-0.0025,0.0357,7.0779877,-78.87878,183.9836,184.99365,-0.1381,-0.8129,0.2431,0.069,0.199,-0.122,1.499,-29.237,-24.437,51
0.7716,-0.635,-0.0026,0.0343,7.0742326,-78.86719,183.7971,184.77336,-0.1171,-0.8232,0.2553,-0.013,0.046,-0.106,-3.3,-28.787,-20.837,51
0.7715,-0.6352,-0.0029,0.034,7.046109,-78.894745,183.71858,184.69272,-0.1059,-0.8281,0.2656,-0.045,-0.006,-0.091,-3.3,-28.787,-20.837,51
0.7695,-0.6375,-0.0038,0.0366,6.6865187,-79.24222,183.93904,184.97829,-0.0566,-0.9355,0.2587,-0.149,-0.089,0.195,-3.3,-28.787,-20.837,51
0.7688,-0.6382,-0.0035,0.0381,6.5906177,-79.34899,184.18037,185.24207,-0.0629,-0.976,0.2329,-0.217,-0.13,0.284,-3.3,-28.787,-20.837,51
0.7679,-0.6392,-0.003,0.04,6.466753,-79.4938,184.50642,185.5919,-0.0644,-1.0483,0.205,-0.286,-0.177,0.361,-3.3,-28.787,-20.837,51
0.7668,-0.6404,-0.0027,0.0422,6.375781,-79.6705,184.8458,185.96397,-0.0766,-1.1,0.1811,-0.33,-0.213,0.4,-3.3,-28.787,-20.837,51
0.7657,-0.6416,-0.0024,0.0441,6.313517,-79.84756,185.15042,186.29247,-0.0698,-1.1176,0.1962,-0.322,-0.21,0.353,-3.3,-28.787,-20.837,51
0.7649,-0.6424,-0.0022,0.0455,6.303079,-79.96962,185.37224,186.53253,-0.0454,-1.1245,0.2231,-0.243,-0.148,0.242,-3.3,-28.787,-20.837,51
0.764,-0.6435,-0.0012,0.0461,6.567509,-80.12142,185.61894,186.75504,-0.0185,-1.1562,0.2719,-0.122,0.132,0.118,-3.3,-28.787,-20.837,51
0.7633,-0.6443,0.0004,0.0459,6.863689,-80.22974,185.8503,186.93301,-0.0258,-1.2055,0.2685,-0.193,0.306,0.192,-3.3,-28.787,-20.837,51
0.7575,-0.6512,0.0106,0.0443,8.005381,-81.16392,187.32951,188.06511,-0.205,-1.3007,0.1079,-0.468,0.393,0.171,-6,-25.337,-16.787,51
0.7562,-0.6526,0.0113,0.0435,8.0299425,-81.37913,187.36652,188.05449,-0.2055,-1.2421,0.0927,-0.38,0.228,-0.024,-6,-25.337,-16.787,51
0.7554,-0.6536,0.0107,0.0427,7.9344726,-81.53756,187.19518,187.86789,-0.164,-1.166,0.082,-0.264,0.019,-0.211,-6,-25.337,-16.787,51
0.755,-0.6542,0.0091,0.0421,7.750653,-81.64102,186.88812,187.57443,-0.121,-1.082,0.1005,-0.131,-0.166,-0.319,-6,-25.337,-16.787,51
0.7549,-0.6543,0.0069,0.0418,7.1859417,-81.68219,186.51988,187.24268,-0.0786,-1.0336,0.1103,-0.045,-0.306,-0.341,-6,-25.337,-16.787,51
0.7552,-0.6539,0.0021,0.0436,6.8169265,-81.66287,186.02132,186.88329,-0.1206,-1.0532,0.1176,0.052,-0.556,-0.129,-6,-25.337,-16.787,51
0.7551,-0.6537,-0.0035,0.0492,5.7966685,-81.679115,185.90233,186.99776,-0.1816,-1.1577,0.061,-0.036,-0.915,0.089,-6,-25.337,-16.787,51
0.7549,-0.6536,-0.0073,0.053,5.1827135,-81.70365,185.82378,187.07616,-0.1694,-1.1811,0.0488,-0.057,-1.102,0.071,-6,-25.337,-16.787,51
0.7551,-0.6516,-0.0243,0.0669,3.2299933,-81.60777,185.0305,186.95454,0.1088,-1.06,0.1201,0.076,-0.938,0.007,-6,-25.337,-16.787,51
0.7552,-0.6512,-0.0269,0.0692,3.027225,-81.57916,184.92801,186.96313,0.1196,-1.0346,0.1235,0.07,-0.695,0.078,-6,-25.337,-16.787,51
0.7553,-0.6508,-0.0284,0.0712,2.9098501,-81.54392,184.9518,187.07062,0.0957,-1.0151,0.1215,0.061,-0.494,0.143,-6,-25.337,-16.787,51
0.7552,-0.6506,-0.0294,0.0727,2.5927188,-81.5386,184.99283,187.16785,0.0468,-0.9814,0.1074,0.042,-0.355,0.151,-6,-25.337,-16.787,51
0.756,-0.649,-0.0337,0.077,2.1945724,-81.36242,184.858,187.26204,-0.038,-0.8686,0.0859,0.161,-0.358,-0.06,-10.05,-20.237,-12.287,51
0.7566,-0.6481,-0.0353,0.0779,1.9679887,-81.24828,184.70749,187.19357,-0.0351,-0.8461,0.081,0.207,-0.389,-0.089,-10.05,-20.237,-12.287,51
0.7581,-0.6459,-0.0386,0.08,1.584424,-80.9626,184.41676,187.09392,-0.0512,-0.8364,0.0766,0.263,-0.417,-0.07,-10.05,-20.237,-12.287,51
0.7589,-0.6447,-0.0403,0.0813,1.4408493,-80.80733,184.29227,187.07758,-0.0688,-0.8608,0.0678,0.269,-0.434,-0.046,-10.05,-20.237,-12.287,51
0.7597,-0.6435,-0.0419,0.0826,1.3562108,-80.65146,184.18208,187.07524,-0.0844,-0.8583,0.06,0.278,-0.447,-0.027,-10.05,-20.237,-12.287,51
0.7605,-0.6423,-0.0436,0.0841,1.3412219,-80.49615,184.0813,187.09119,-0.0913,-0.874,0.0532,0.279,-0.466,-0.014,-10.05,-20.237,-12.287,51
0.7619,-0.6399,-0.0467,0.0871,1.5064312,-80.19897,183.92574,187.16464,-0.0957,-0.875,0.0527,0.251,-0.441,0.018,-10.05,-20.237,-12.287,51
0.7629,-0.6382,-0.0488,0.0898,1.743029,-79.98803,183.89812,187.3166,-0.0766,-0.8857,0.0517,0.167,-0.32,0.057,-10.05,-20.237,-12.287,51
0.766,-0.6344,-0.0482,0.091,1.7458725,-79.42251,184.00577,187.60025,-0.0639,-0.8891,0.0629,0.284,0.082,-0.085,-10.05,-20.237,-12.287,51
0.7668,-0.6335,-0.048,0.0907,1.7810673,-79.28295,183.96774,187.58723,-0.062,-0.8999,0.0693,0.297,0.055,-0.055,-9.9,-14.987,-12.437,51
0.7681,-0.6319,-0.0473,0.0911,1.9488871,-79.042534,184.06555,187.7445,-0.0639,-0.9819,0.0703,0.231,-0.004,0.097,-9.9,-14.987,-12.437,51
0.7683,-0.6316,-0.0468,0.0918,2.0550363,-78.99877,184.2135,187.91168,-0.0625,-1.061,0.0654,0.16,-0.009,0.168,-9.9,-14.987,-12.437,51
0.7685,-0.6313,-0.0461,0.0926,2.1312356,-78.95355,184.40245,188.118,-0.0551,-1.1108,0.0727,0.1,0.007,0.207,-9.9,-14.987,-12.437,51
0.769,-0.6308,-0.0444,0.0928,2.0070484,-78.86178,184.65668,188.35852,-0.0009,-1.1357,0.1201,0.081,0.174,0.05,-9.9,-14.987,-12.437,51
0.7694,-0.6306,-0.0435,0.0912,1.832109,-78.8092,184.58694,188.23247,0.0263,-1.123,0.1357,0.097,0.336,-0.131,-9.9,-14.987,-12.437,51
0.77,-0.6303,-0.0422,0.0886,1.684993,-78.73092,184.45181,188.00752,0.0498,-1.142,0.1538,0.128,0.541,-0.268,-9.9,-14.987,-12.437,51
0.7707,-0.6301,-0.0401,0.0851,1.964367,-78.64975,184.32765,187.74571,0.0546,-1.1738,0.1508,0.113,0.79,-0.291,-9.9,-14.987,-12.437,51
0.7712,-0.6309,-0.0328,0.0771,2.3986695,-78.64256,184.45155,187.44514,-0.0224,-1.2163,0.1079,-0.048,1.188,-0.121,-9.9,-14.987,-12.437,51
0.7709,-0.632,-0.0284,0.0728,2.9557047,-78.73761,184.6065,187.3405,-0.0639,-1.2128,0.0888,-0.152,1.275,-0.079,-9.9,-14.987,-12.437,51
0.7705,-0.6332,-0.0239,0.0684,3.5629814,-78.84887,184.76514,187.235,-0.0961,-1.208,0.0922,-0.22,1.306,-0.109,-9.9,-14.987,-12.437,51
0.77,-0.6344,-0.0197,0.0636,4.2098775,-78.97114,184.83055,187.03604,-0.0737,-1.1738,0.1225,-0.218,1.305,-0.204,-9.9,-14.987,-12.437,51
0.7697,-0.636,-0.0122,0.0531,5.5544763,-79.10613,184.69095,186.39636,-0.0039,-1.0683,0.2138,-0.079,1.286,-0.358,-9.9,-14.987,-12.437,51
0.7699,-0.6362,-0.0087,0.0476,6.240369,-79.099625,184.53978,186.00845,0.041,-1.0273,0.2597,-0.006,1.274,-0.386,-9.9,-14.987,-12.437,51
0.7703,-0.6362,-0.0053,0.0422,7.454111,-79.062706,184.38115,185.62181,0.0615,-0.9887,0.2871,0.047,1.25,-0.374,-9.9,-14.987,-12.437,51
0.7713,-0.6355,0.0036,0.0308,8.095483,-78.90474,184.29625,185.0133,0.0161,-0.9443,0.3017,0.013,0.753,-0.032,-13.35,-10.187,-16.487,51
0.7682,-0.6391,0.0053,0.036,7.250646,-79.41478,185.24301,186.02197,0.0234,-1.0556,0.1801,-0.341,-0.553,0.371,-13.35,-10.187,-16.487,51
0.7672,-0.6401,0.0036,0.0392,6.8877525,-79.57611,185.40463,186.29718,0.0415,-1.0776,0.1616,-0.291,-0.683,0.334,-13.35,-10.187,-16.487,51
0.7665,-0.6407,0.0018,0.0422,6.5936375,-79.68244,185.52153,186.52672,0.08,-1.0883,0.1723,-0.2,-0.672,0.234,-13.35,-10.187,-16.487,51
0.7668,-0.6403,-0.0026,0.0443,6.463522,-79.65332,185.11903,186.2894,0.1069,-1.0102,0.2265,0.071,0.072,-0.108,-13.35,-10.187,-16.487,51
0.7671,-0.64,-0.0022,0.0429,6.677214,-79.606964,184.99924,186.12843,0.0883,-0.9663,0.2358,0.071,0.254,-0.119,-13.35,-10.187,-16.487,51
0.7675,-0.6397,-0.0012,0.0411,6.92455,-79.55013,184.91832,185.98164,0.0585,-0.934,0.2324,0.077,0.392,-0.119,-13.35,-10.187,-16.487,51
0.7678,-0.6393,0,0.0391,7.21727,-79.49119,184.84344,185.8305,0.041,-0.9003,0.227,0.087,0.483,-0.107,-13.35,-10.187,-16.487,51
0.7686,-0.6386,0.0035,0.035,7.8465595,-79.36012,184.84447,185.64706,-0.0141,-0.8564,0.2177,0.119,0.557,-0.071,-13.35,-10.187,-16.487,51
0.769,-0.6382,0.0055,0.0331,8.164606,-79.28795,184.9009,185.60776,-0.0395,-0.8417,0.2182,0.128,0.566,-0.039,-13.35,-10.187,-16.487,51
0.77,-0.6372,0.011,0.0284,8.858345,-79.10376,185.12419,185.57564,-0.1137,-0.8598,0.1962,0.097,0.418,-0.01,-13.35,-4.787,-20.237,51
0.7703,-0.6369,0.0121,0.0273,8.990685,-79.05165,185.14798,185.54381,-0.1245,-0.8598,0.1997,0.112,0.32,-0.03,-13.35,-4.787,-20.237,51
0.7707,-0.6363,0.0129,0.0265,9.072231,-78.966835,185.16147,185.5179,-0.1357,-0.8754,0.2158,0.128,0.221,-0.066,-13.35,-4.787,-20.237,51
0.7712,-0.6358,0.0132,0.0258,9.098008,-78.8873,185.11276,185.4449,-0.1347,-0.8706,0.2314,0.128,0.121,-0.096,-13.35,-4.787,-20.237,51
0.7717,-0.6352,0.0131,0.0254,9.071916,-78.80074,185.04108,185.3674,-0.1142,-0.8642,0.2446,0.122,0.041,-0.115,-13.35,-4.787,-20.237,51
0.7723,-0.6346,0.0117,0.0242,9.071916,-78.72082,184.6793,185.01285,-0.0678,-0.8452,0.2709,0.007,-0.035,-0.132,-13.35,-4.787,-20.237,51
0.7723,-0.6346,0.0117,0.0242,9.101409,-78.72082,184.6793,185.01285,-0.0678,-0.8452,0.2709,0.007,-0.035,-0.132,-13.35,-4.787,-20.237,51
0.772,-0.635,0.0112,0.0224,9.263169,-78.789566,184.3915,184.68878,-0.0493,-0.8256,0.3071,-0.033,0.116,-0.113,-13.35,-4.787,-20.237,51
0.7719,-0.6351,0.0115,0.0214,9.36505,-78.80781,184.31573,184.57811,-0.0493,-0.8276,0.2944,-0.044,0.168,-0.104,-13.35,-4.787,-20.237,51
0.7718,-0.6353,0.0119,0.0205,9.46724,-78.83376,184.26723,184.49467,-0.0727,-0.8242,0.29,-0.04,0.191,-0.097,-13.35,-4.787,-20.237,51
0.7717,-0.6355,0.0123,0.0196,9.57021,-78.859764,184.2186,184.41125,-0.0766,-0.8193,0.2827,-0.038,0.188,-0.09,-13.35,-4.787,-20.237,51
0.7715,-0.6357,0.013,0.0181,9.690897,-78.893524,184.142,184.27623,-0.1132,-0.8466,0.2641,-0.014,0.132,-0.069,-13.35,-4.787,-20.237,51
0.7715,-0.6357,0.014,0.0187,9.623993,-78.88397,184.36337,184.48717,-0.142,-0.9433,0.2275,-0.047,-0.037,0.122,-13.35,-4.787,-20.237,51
0.7696,-0.6378,0.0147,0.0234,9.330705,-79.1799,185.0683,185.29245,-0.0664,-1.0175,0.2216,-0.166,-0.128,0.143,-13.65,-1.637,-22.037,51
0.7693,-0.6382,0.0147,0.0239,9.381311,-79.2345,185.1346,185.37064,-0.0375,-1.0156,0.2402,-0.139,-0.049,0.078,-13.65,-1.637,-22.037,51
0.7677,-0.64,0.0185,0.0231,10.012716,-79.48065,185.62628,185.74199,-0.0498,-1.1254,0.2587,-0.229,0.391,0.219,-13.65,-1.637,-22.037,51
0.7665,-0.6413,0.0214,0.0228,10.317455,-79.65658,186.04018,186.07487,-0.0903,-1.1894,0.2309,-0.346,0.495,0.331,-13.65,-1.637,-22.037,51
0.765,-0.6431,0.0246,0.0228,10.848713,-79.89093,186.54303,186.4993,-0.1342,-1.2524,0.1958,-0.457,0.521,0.416,-13.65,-1.637,-22.037,51
0.7603,-0.6483,0.0313,0.0233,10.985275,-80.60672,187.69312,187.51079,-0.227,-1.2602,0.0878,-0.42,0.194,0.198,-13.65,-1.637,-22.037,51
0.7603,-0.6483,0.0313,0.0233,10.918199,-80.60672,187.69312,187.51079,-0.227,-1.2602,0.0878,-0.42,0.194,0.198,-13.65,-1.637,-22.037,51
0.7585,-0.6505,0.0303,0.0236,10.713846,-80.941025,187.61673,187.4687,-0.1464,-1.1381,0.0732,-0.242,-0.185,-0.104,-13.65,-1.637,-22.037,51
0.758,-0.6511,0.0283,0.0241,10.42375,-81.05116,187.39006,187.2982,-0.0966,-1.0761,0.0859,-0.141,-0.369,-0.207,-13.65,-1.637,-22.037,51
0.7578,-0.6513,0.0256,0.0248,10.040093,-81.110565,187.07764,187.06023,-0.0747,-1.0292,0.0971,-0.052,-0.525,-0.246,-13.65,-1.637,-22.037,51
0.758,-0.6512,0.0224,0.0261,9.60128,-81.11445,186.76022,186.8408,-0.0649,-1.017,0.0981,0.04,-0.657,-0.227,-13.65,-1.637,-22.037,51
0.7587,-0.6504,0.0157,0.0307,8.564793,-81.03485,186.3294,186.65926,-0.1059,-1.0634,0.0996,0.103,-0.894,-0.047,-13.65,-1.637,-22.037,51
0.7587,-0.6503,0.0122,0.034,7.998023,-81.04214,186.22554,186.70523,-0.0991,-1.0834,0.0795,0.029,-0.989,0.034,-13.65,-1.637,-22.037,51
0.7587,-0.6502,0.0085,0.0375,7.4390635,-81.050514,186.11693,186.7554,-0.0917,-1.0966,0.0722,-0.035,-1.044,0.064,-9.9,5.414,-22.787,51
0.7585,-0.6502,0.0048,0.041,6.9170394,-81.08274,186.01178,186.80746,-0.0522,-1.102,0.0756,-0.053,-1.047,0.055,-9.9,5.414,-22.787,51
0.7584,-0.6501,0.0013,0.0442,6.4832177,-81.09868,185.89594,186.83868,-0.0014,-1.0961,0.1015,-0.034,-0.977,0.031,-9.9,5.414,-22.787,51
0.7583,-0.6501,-0.0017,0.0468,6.1665716,-81.12161,185.77928,186.84383,0.0351,-1.08,0.1147,-0.027,-0.815,0.027,-9.9,5.414,-22.787,51
0.7581,-0.6502,-0.0039,0.0488,5.9588046,-81.15621,185.70863,186.86243,0.06,-1.0668,0.1303,-0.031,-0.616,0.069,-9.9,5.414,-22.787,51
0.7578,-0.6504,-0.0052,0.0505,5.8539925,-81.20046,185.7375,186.95267,0.0454,-1.0556,0.1274,-0.065,-0.412,0.131,-9.9,5.414,-22.787,51
0.7574,-0.6508,-0.0057,0.0519,5.8045654,-81.26393,185.85211,187.10175,0.0073,-1.0283,0.1103,-0.107,-0.26,0.17,-9.9,5.414,-22.787,51
0.7568,-0.6513,-0.0059,0.053,5.740802,-81.34955,185.9782,187.24611,-0.0371,-1.0092,0.1137,-0.141,-0.187,0.168,-9.9,5.414,-22.787,51
0.7563,-0.6519,-0.0063,0.0541,5.6455836,-81.43816,186.07413,187.36357,-0.0805,-0.9975,0.1005,-0.156,-0.193,0.121,-9.9,5.414,-22.787,51
0.7555,-0.6526,-0.0083,0.0563,5.2725744,-81.56811,186.0779,187.44057,-0.103,-0.9433,0.0874,-0.068,-0.347,-0.005,-9.9,5.414,-22.787,51
0.7553,-0.6525,-0.0121,0.0592,4.6749477,-81.59718,185.88206,187.38358,-0.0917,-0.9008,0.0668,0.022,-0.536,-0.053,-9.9,5.414,-22.787,51
0.7556,-0.6516,-0.0171,0.0631,3.9647417,-81.525764,185.61536,187.31941,-0.0893,-0.8906,0.0468,0.061,-0.688,-0.021,-9.9,5.414,-22.787,51
0.7557,-0.6512,-0.0198,0.0654,3.6041827,-81.498604,185.49783,187.31482,-0.0874,-0.8867,0.0463,0.056,-0.74,0.004,-9.9,5.414,-22.787,51
0.7558,-0.6507,-0.0225,0.068,3.278181,-81.46207,185.41695,187.35626,-0.0786,-0.8955,0.0346,0.057,-0.772,0.024,-9.9,5.414,-22.787,51
0.7558,-0.6501,-0.0277,0.073,2.610153,-81.43811,185.26744,187.4351,-0.0566,-0.9125,0.0307,0.066,-0.733,0.037,-9.9,5.414,-22.787,51
0.7551,-0.6497,-0.0337,0.0798,2.5666335,-81.488,185.24333,187.68298,-0.038,-0.9018,0.0278,-0.029,-0.254,0.104,-9.9,8.113,-25.037,51
0.7545,-0.6503,-0.0336,0.0811,2.7255945,-81.58292,185.44603,187.89078,-0.0488,-0.9028,0.0073,-0.055,-0.027,0.105,-9.9,8.113,-25.037,51
0.754,-0.6509,-0.0326,0.0814,2.836178,-81.66491,185.6544,188.06555,-0.0922,-0.9062,-0.0004,-0.005,0.068,0.072,-9.9,8.113,-25.037,51
0.7539,-0.651,-0.0321,0.0814,2.8891754,-81.67735,185.7331,188.13104,-0.0952,-0.8969,-0.0087,0.032,0.077,0.064,-9.9,8.113,-25.037,51
0.7539,-0.6511,-0.0315,0.0815,2.916468,-81.68127,185.8374,188.22426,-0.1098,-0.9091,-0.018,0.068,0.06,0.065,-9.9,8.113,-25.037,51
0.7541,-0.6507,-0.0305,0.0825,3.0160503,-81.6216,186.10393,188.5077,-0.1225,-0.9536,-0.0229,0.126,-0.027,0.147,-9.9,8.113,-25.037,51
0.7541,-0.6502,-0.029,0.087,3.3249588,-81.553925,186.89189,189.38577,-0.1181,-1.0659,-0.018,0.101,-0.165,0.328,-9.9,8.113,-25.037,51
0.7542,-0.6499,-0.0284,0.0888,3.4565117,-81.509186,187.20172,189.73645,-0.0986,-1.1127,0.0112,0.081,-0.143,0.358,-9.9,8.113,-25.037,51
0.7543,-0.6496,-0.0274,0.0902,3.5817397,-81.4607,187.5199,190.07881,-0.0639,-1.1367,0.0317,0.066,-0.056,0.352,-9.9,8.113,-25.037,51
0.7543,-0.6495,-0.0263,0.091,3.6572375,-81.43721,187.7829,190.3434,-0.0234,-1.1274,0.0683,0.06,0.064,0.271,-9.9,8.113,-25.037,51
0.7545,-0.6494,-0.025,0.0907,3.714039,-81.400085,187.93198,190.46652,0.0195,-1.1069,0.1201,0.061,0.242,0.123,-9.9,8.113,-25.037,51
0.7548,-0.6493,-0.0233,0.0893,3.8085005,-81.355095,187.99982,190.47507,0.0517,-1.121,0.1489,0.072,0.463,-0.002,-9.9,8.113,-25.037,51
0.7552,-0.6493,-0.0209,0.0868,4.0188885,-81.30792,188.03307,190.40746,0.0576,-1.1357,0.1787,0.081,0.697,-0.067,-9.9,8.113,-25.037,51
0.7554,-0.65,-0.0138,0.0803,4.78919,-81.2996,188.28001,190.34822,-0.0136,-1.2089,0.1831,-0.022,1.069,-0.011,-6.9,15.164,-29.087,51
0.7552,-0.6508,-0.0098,0.0768,5.22408,-81.35289,188.45244,190.34201,-0.0634,-1.2177,0.1704,-0.1,1.097,0.007,-6.9,15.164,-29.087,51
0.7547,-0.6518,-0.0062,0.0734,5.592657,-81.45054,188.58643,190.30327,-0.0976,-1.2226,0.1733,-0.159,1.021,-0.043,-6.9,15.164,-29.087,51
0.7543,-0.6527,-0.0034,0.0702,6.1094365,-81.54151,188.62053,190.19052,-0.121,-1.2172,0.1684,-0.166,0.882,-0.119,-6.9,15.164,-29.087,51
0.7531,-0.6549,0.0002,0.0619,6.3446603,-81.82733,188.15202,189.42386,-0.0415,-1.1049,0.2026,-0.146,0.432,-0.345,-6.9,15.164,-29.087,51
0.7529,-0.6553,-0.0001,0.0589,6.3925066,-81.89863,187.72816,188.93321,0.0107,-1.0249,0.2124,-0.129,0.356,-0.471,-6.9,15.164,-29.087,51
0.753,-0.6556,-0.001,0.0556,6.4036727,-81.945786,187.16609,188.31409,0.0517,-0.9609,0.225,-0.081,0.301,-0.583,-6.9,15.164,-29.087,51
0.7532,-0.6556,-0.0024,0.0523,6.406633,-81.961945,186.52217,187.62772,0.0708,-0.9116,0.2324,-0.02,0.25,-0.643,-6.9,15.164,-29.087,51
0.7539,-0.6552,-0.0051,0.0471,6.3569717,-81.92084,185.42143,186.47821,0.0566,-0.8276,0.2465,0.08,0.095,-0.541,-6.9,15.164,-29.087,51
0.7542,-0.6549,-0.0063,0.0459,6.2532754,-81.885864,185.07639,186.13647,0.0278,-0.8193,0.2226,0.077,-0.032,-0.369,-6.9,15.164,-29.087,51
0.7542,-0.6548,-0.0074,0.046,6.0944133,-81.884995,184.9223,186.0069,0.0151,-0.8496,0.1845,0.002,-0.19,-0.121,-6.9,15.164,-29.087,51
0.7538,-0.6552,-0.0084,0.0476,5.9011374,-81.95201,184.98955,186.11957,-0.0019,-0.9101,0.1528,-0.13,-0.36,0.135,-6.9,15.164,-29.087,51
0.7529,-0.656,-0.0094,0.0504,5.7205667,-82.08767,185.22588,186.41663,-0.0073,-0.9848,0.1088,-0.237,-0.507,0.324,-6.9,15.164,-29.087,51
0.7519,-0.6569,-0.0103,0.0536,5.5397787,-82.23749,185.53448,186.78815,0.0073,-1.0541,0.081,-0.252,-0.573,0.401,-6.9,15.164,-29.087,51
0.7511,-0.6574,-0.012,0.0587,5.252246,-82.33789,185.9657,187.34123,0.0463,-1.1,0.1,-0.003,-0.413,0.245,-6.9,15.164,-29.087,51
0.7523,-0.6558,-0.0126,0.0597,5.1838984,-82.11092,185.96489,187.40811,0.0615,-1.0766,0.1699,0.246,-0.005,0.009,-6.3,17.414,-30.737,51
0.7533,-0.6549,-0.012,0.0589,5.282653,-81.95545,185.9225,187.36084,0.0507,-1.0498,0.1977,0.259,0.189,-0.028,-6.3,17.414,-30.737,51
0.7541,-0.6541,-0.0109,0.0576,5.4516177,-81.821175,185.8961,187.30464,0.0219,-1.0083,0.2133,0.217,0.342,-0.032,-6.3,17.414,-30.737,51
0.7546,-0.6536,-0.0094,0.0562,5.6550393,-81.73239,185.92644,187.28702,0.0029,-0.9741,0.2133,0.141,0.438,0,-6.3,17.414,-30.737,51
0.7552,-0.6531,-0.006,0.0536,6.034135,-81.62391,186.08669,187.33525,-0.0405,-0.9472,0.2143,0.047,0.416,0.056,-6.3,17.414,-30.737,51
0.7557,-0.6527,-0.0033,0.0523,6.2407236,-81.53218,186.31259,187.48756,-0.0512,-0.914,0.2055,0.054,0.253,0.077,-6.3,17.414,-30.737,51
0.756,-0.6524,-0.0024,0.052,6.284547,-81.4764,186.40108,187.55698,-0.06,-0.9023,0.2036,0.082,0.183,0.07,-6.3,17.414,-30.737,51
0.7585,-0.6495,-0.0025,0.0525,5.860845,-81.03656,186.37685,187.59688,-0.0776,-0.8808,0.2084,0.13,-0.144,-0.047,-6.3,17.414,-30.737,51
0.7593,-0.6484,-0.004,0.053,5.769825,-80.89338,186.19049,187.4723,-0.0375,-0.8945,0.2294,0.083,-0.162,-0.067,-6.3,17.414,-30.737,51
0.7596,-0.6481,-0.0047,0.0532,5.714505,-80.850624,186.1028,187.41005,-0.0341,-0.8906,0.2392,0.043,-0.128,-0.056,-6.3,17.414,-30.737,51
0.7597,-0.6479,-0.0052,0.0532,5.7365894,-80.830345,186.02417,187.34523,-0.0175,-0.8818,0.247,-0.002,-0.072,-0.044,-6.3,17.414,-30.737,51
0.7596,-0.6481,-0.0052,0.0529,5.801854,-80.856476,185.98994,187.30083,-0.0209,-0.8745,0.2636,-0.084,0.06,-0.002,-4.5,20.113,30.599,51
0.7594,-0.6484,-0.0048,0.0526,5.8875804,-80.8951,186.0183,187.30855,-0.0297,-0.8886,0.2607,-0.11,0.113,0.024,-4.5,20.113,30.599,51
0.7591,-0.6487,-0.0041,0.0525,5.9699645,-80.93751,186.11859,187.38588,-0.0629,-0.9077,0.2485,-0.125,0.128,0.072,-4.5,20.113,30.599,51
0.7587,-0.6492,-0.0034,0.0526,6.0251412,-81.003784,186.24814,187.49426,-0.0673,-0.9145,0.2343,-0.152,0.096,0.12,-4.5,20.113,30.599,51
0.7582,-0.6497,-0.0028,0.0531,6.038499,-81.07642,186.4155,187.65121,-0.0776,-0.9453,0.228,-0.167,0.034,0.163,-4.5,20.113,30.599,51
0.7573,-0.6506,-0.0026,0.0555,5.830853,-81.208244,186.77701,188.04669,-0.0878,-0.955,0.1948,-0.136,-0.211,0.189,-4.5,20.113,30.599,51
0.757,-0.6508,-0.0034,0.0572,5.636377,-81.24791,186.88165,188.20203,-0.0668,-0.9555,0.1889,-0.102,-0.343,0.167,-4.5,20.113,30.599,51
0.7565,-0.6509,-0.006,0.0613,5.2219095,-81.30126,187.02545,188.4874,-0.0249,-0.9453,0.207,-0.078,-0.494,0.17,-4.5,20.113,30.599,51
0.7554,-0.6515,-0.0102,0.0677,4.741786,-81.45014,187.2421,188.91571,0.0332,-0.9531,0.2187,-0.143,-0.46,0.176,-4.5,20.113,30.599,51
0.755,-0.6519,-0.0113,0.0694,4.682564,-81.518845,187.30809,189.03166,0.0351,-0.9702,0.2211,-0.148,-0.393,0.171,-4.5,20.113,30.599,51
0.7544,-0.6523,-0.012,0.0709,4.6991553,-81.59918,187.4133,189.17151,0.0307,-1.0122,0.2138,-0.169,-0.3,0.193,-4.5,20.113,30.599,51
0.7537,-0.653,-0.0122,0.0723,4.8093243,-81.70804,187.58781,189.362,0.02,-1.0527,0.1982,-0.21,-0.198,0.246,-4.5,20.113,30.599,51
0.7515,-0.6552,-0.0109,0.075,5.2369924,-82.03507,188.21269,189.95993,-0.0551,-1.1645,0.1347,-0.347,-0.023,0.343,-4.5,20.113,30.599,51
0.7501,-0.6568,-0.0097,0.0763,5.629772,-82.25661,188.6189,190.32889,-0.101,-1.205,0.1044,-0.417,0.018,0.372,-4.5,20.113,30.599,51
0.7471,-0.6599,-0.0086,0.0781,5.681484,-82.72508,189.14229,190.78064,-0.1704,-1.1499,0.0151,-0.416,-0.036,0.164,-1.2,26.113,29.399,51
0.7461,-0.661,-0.0092,0.0784,5.647802,-82.90163,189.13435,190.75607,-0.165,-1.1142,0.0166,-0.302,-0.119,-0.018,-1.2,26.113,29.399,51
0.7455,-0.6616,-0.0103,0.0787,5.5344396,-83.01153,189.03278,190.65912,-0.1474,-1.0893,0.0161,-0.148,-0.213,-0.126,-1.2,26.113,29.399,51
0.7453,-0.6618,-0.0119,0.0792,5.4235783,-83.06192,188.8652,190.52017,-0.1542,-1.0634,0.0209,-0.045,-0.307,-0.144,-1.2,26.113,29.399,51
0.745,-0.6619,-0.0136,0.0804,5.276888,-83.1084,188.77576,190.47534,-0.1718,-1.0488,0.0092,-0.024,-0.427,-0.084,-1.2,26.113,29.399,51
0.7449,-0.6618,-0.0157,0.0823,5.1432524,-83.123795,188.70966,190.48085,-0.1865,-1.0947,-0.0258,-0.034,-0.584,0.013,-1.2,26.113,29.399,51
0.7444,-0.6614,-0.0214,0.0889,4.939445,-83.16543,188.72339,190.71788,-0.1826,-1.1323,-0.061,-0.041,-0.995,0.143,-1.2,26.113,29.399,51
0.7441,-0.6609,-0.025,0.0932,4.924175,-83.16966,188.74353,190.88808,-0.1386,-1.1567,-0.0507,-0.018,-1.143,0.154,-1.2,26.113,29.399,51
0.744,-0.6603,-0.0288,0.0976,5.0138865,-83.15284,188.73785,191.04474,-0.0786,-1.1582,-0.0405,0.028,-1.192,0.178,-1.2,26.113,29.399,51
0.7439,-0.6596,-0.0321,0.102,5.17359,-83.122345,188.80376,191.27032,-0.0302,-1.1547,-0.0273,0.059,-1.128,0.209,-1.2,26.113,29.399,51
0.7438,-0.6589,-0.0349,0.1061,5.38205,-83.08788,188.90393,191.51857,0.0195,-1.1425,-0.0112,0.063,-0.983,0.246,-1.2,26.113,29.399,51
0.7437,-0.6584,-0.0368,0.1097,5.605954,-83.06233,189.077,191.81198,0.0551,-1.1367,0.0004,0.05,-0.79,0.29,-1.2,26.113,29.399,51
0.7434,-0.658,-0.0378,0.1127,5.8010855,-83.052185,189.31468,192.13774,0.0693,-1.121,0.0141,0.019,-0.573,0.325,-1.2,26.113,29.399,51
0.743,-0.6581,-0.0384,0.1148,5.960649,-83.09106,189.51044,192.3782,0.0654,-1.0952,0.0097,-0.018,-0.382,0.315,-1.2,26.113,29.399,51
0.7425,-0.6584,-0.0386,0.1162,6.0521927,-83.152275,189.68405,192.56621,0.0561,-1.0488,0.0166,-0.049,-0.212,0.259,-1.2,26.113,29.399,51
0.7422,-0.6587,-0.0386,0.1169,6.0946875,-83.198265,189.79115,192.67322,0.0581,-1.0131,0.0361,-0.052,-0.078,0.181,-1.2,26.113,29.399,51
0.7418,-0.6592,-0.038,0.1167,6.060815,-83.264755,189.88031,192.72495,0.0312,-0.937,0.0498,-0.011,0.098,0.053,-1.2,26.113,29.399,51
0.7418,-0.6593,-0.0376,0.1162,6.0415444,-83.270096,189.87805,192.70287,0.0205,-0.9052,0.0478,0.001,0.131,0.018,-1.2,26.113,29.399,51
0.7419,-0.6593,-0.0371,0.1158,6.046578,-83.25748,189.89795,192.70947,-0.0385,-0.8881,0.0244,0.019,0.03,-0.001,3.299,29.563,28.499,51
0.7419,-0.6592,-0.0374,0.1161,6.0776434,-83.251625,189.8894,192.7148,-0.0683,-0.8891,0.0146,0.022,-0.072,0.012,3.299,29.563,28.499,51
0.742,-0.6587,-0.0389,0.1181,6.2762756,-83.21274,189.90738,192.81668,-0.1054,-0.9082,-0.0312,0.064,-0.33,0.049,3.299,29.563,28.499,51
0.7419,-0.6584,-0.0403,0.1197,6.5694256,-83.206764,189.89996,192.87189,-0.1083,-0.9184,-0.0302,0.081,-0.447,0.06,3.299,29.563,28.499,51
0.742,-0.6573,-0.0436,0.1238,6.7424474,-83.1324,189.90224,193.0524,-0.0776,-0.9155,-0.0541,0.136,-0.568,0.084,3.299,29.563,28.499,51
0.7421,-0.6567,-0.0453,0.126,6.940159,-83.087494,189.91107,193.15889,-0.0625,-0.9228,-0.0458,0.149,-0.564,0.12,3.299,29.563,28.499,51
0.742,-0.6562,-0.0466,0.1282,7.1381874,-83.06147,189.98828,193.32104,-0.0556,-0.9199,-0.0512,0.127,-0.525,0.165,3.299,29.563,28.499,51
0.7417,-0.6556,-0.0484,0.1323,7.5117097,-83.042496,190.23578,193.7061,-0.0532,-0.9516,-0.0502,0.081,-0.382,0.221,3.299,29.563,28.499,51
0.7417,-0.655,-0.0489,0.1355,7.7750945,-82.9862,190.54945,194.12894,-0.0458,-1.0004,-0.0229,0.13,-0.228,0.233,3.299,29.563,28.499,51
0.7418,-0.6546,-0.0485,0.1369,7.9076085,-82.93308,190.77011,194.39842,-0.0512,-1.059,-0.0151,0.161,-0.134,0.276,3.299,29.563,28.499,51
0.742,-0.6541,-0.0474,0.1384,8.039807,-82.852394,191.09943,194.77776,-0.0644,-1.1166,-0.0087,0.152,-0.04,0.366,3.299,29.563,28.499,51
0.7424,-0.6534,-0.0442,0.1407,8.158493,-82.700455,191.82321,195.56107,-0.0776,-1.1494,0.0258,0.133,0.111,0.361,3.299,29.563,28.499,51
0.7427,-0.6531,-0.0425,0.1411,8.107118,-82.62127,192.10297,195.85004,-0.0659,-1.164,0.0585,0.159,0.209,0.263,3.299,29.563,28.499,51
0.7438,-0.6524,-0.0383,0.1394,7.7708716,-82.4143,192.44846,196.14989,-0.038,-1.1582,0.1225,0.178,0.504,0.095,8.849,31.213,25.649,51
0.7445,-0.6523,-0.0358,0.1373,7.483161,-82.32119,192.52757,196.15944,-0.0307,-1.1254,0.1474,0.154,0.672,-0.003,8.849,31.213,25.649,51
0.7452,-0.6523,-0.0333,0.1342,7.1669025,-82.243515,192.48683,196.01672,-0.0224,-1.0825,0.1616,0.146,0.809,-0.112,8.849,31.213,25.649,51
0.7459,-0.6523,-0.0307,0.1306,6.8379908,-82.16797,192.39952,195.81126,-0.0361,-1.0429,0.1674,0.138,0.891,-0.201,8.849,31.213,25.649,51
0.7466,-0.6523,-0.0283,0.1267,6.553627,-82.09883,192.24582,195.5332,-0.0556,-0.9897,0.1699,0.127,0.889,-0.261,8.849,31.213,25.649,51
0.7473,-0.6524,-0.0262,0.1231,6.3335853,-82.04233,192.08737,195.2592,-0.0781,-0.9541,0.1904,0.094,0.817,-0.276,8.849,31.213,25.649,51
0.7478,-0.6524,-0.0245,0.1201,6.2082496,-81.99567,191.94888,195.0256,-0.1103,-0.9194,0.2055,0.051,0.677,-0.242,8.849,31.213,25.649,51
0.7475,-0.6534,-0.0228,0.1167,6.160853,-82.09905,191.8118,194.73924,-0.186,-0.9086,0.1782,-0.15,0.246,-0.147,8.849,31.213,25.649,51
0.7469,-0.6542,-0.0233,0.1164,6.2007856,-82.224236,191.73982,194.63297,-0.2041,-0.9096,0.1582,-0.222,-0.015,-0.115,8.849,31.213,25.649,51
0.7446,-0.656,-0.0297,0.1191,6.339762,-82.642624,191.25227,194.2063,-0.1591,-0.9462,0.1269,-0.207,-0.59,-0.198,8.849,31.213,25.649,51
0.7438,-0.6562,-0.0359,0.1214,6.3915305,-82.80348,190.65414,193.72557,-0.1152,-0.9643,0.1098,-0.101,-0.634,-0.239,8.849,31.213,25.649,51
0.7435,-0.6561,-0.0388,0.1225,6.450905,-82.85445,190.37012,193.50339,-0.0913,-0.9809,0.1123,-0.087,-0.587,-0.222,8.849,31.213,25.649,51
0.7432,-0.6561,-0.0414,0.1234,6.5389147,-82.909584,190.10777,193.29007,-0.0834,-0.9965,0.1,-0.089,-0.532,-0.197,8.849,31.213,25.649,51
0.7425,-0.6564,-0.0459,0.1251,6.694681,-83.04181,189.68553,192.9396,-0.0761,-1.0039,0.1069,-0.098,-0.426,-0.145,8.849,31.213,25.649,51
0.7422,-0.6565,-0.0477,0.1257,6.7547226,-83.09394,189.50665,192.78677,-0.0688,-1.0039,0.1074,-0.083,-0.362,-0.13,8.849,31.213,25.649,51
0.742,-0.6565,-0.0492,0.1262,6.7976103,-83.12601,189.35376,192.65947,-0.0571,-1.0048,0.1074,-0.054,-0.301,-0.104,6.749,32.263,25.499,51
0.7416,-0.6566,-0.0514,0.1266,6.827058,-83.18995,189.09302,192.42139,-0.0385,-0.997,0.1074,-0.022,-0.056,-0.03,6.749,32.263,25.499,51
0.7415,-0.6567,-0.0516,0.1265,6.81128,-83.20872,189.0563,192.37846,-0.0327,-1.0029,0.1059,-0.021,-0.003,-0.018,6.749,32.263,25.499,51
0.7415,-0.6568,-0.0516,0.1263,6.7773514,-83.217766,189.03322,192.34702,-0.0336,-0.9926,0.1118,-0.004,0.025,-0.011,6.749,32.263,25.499,51
0.7416,-0.6568,-0.0516,0.126,6.748759,-83.21076,188.99136,192.3007,-0.0322,-0.9902,0.1191,0.007,0.045,-0.013,6.749,32.263,25.499,51
0.7417,-0.6567,-0.0515,0.1258,6.7190604,-83.19382,188.97475,192.28436,-0.0341,-0.9877,0.1289,0.015,0.052,-0.01,6.749,32.263,25.499,51
0.7417,-0.6568,-0.0513,0.1252,6.6855717,-83.20149,188.93019,192.21947,-0.0332,-0.9809,0.145,-0.021,0.055,-0.006,6.749,32.263,25.499,51
0.7416,-0.657,-0.0512,0.125,6.676813,-83.225685,188.92786,192.20134,-0.0297,-0.9726,0.1484,-0.044,0.057,0.002,6.749,32.263,25.499,51
0.7414,-0.6573,-0.051,0.1247,6.6742043,-83.265236,188.93346,192.18135,-0.0351,-0.9829,0.1552,-0.078,0.066,0.011,6.749,32.263,25.499,51
0.7411,-0.6576,-0.0509,0.1244,6.6703863,-83.31357,188.92743,192.14835,-0.0458,-0.9931,0.1596,-0.097,0.075,0.001,6.749,32.263,25.499,51
0.7409,-0.658,-0.0507,0.1241,6.673446,-83.36173,188.93544,192.12735,-0.0556,-0.996,0.1518,-0.103,0.075,-0.008,6.749,32.263,25.499,51
0.7406,-0.6584,-0.0507,0.1238,6.673653,-83.41977,188.91684,192.07954,-0.0673,-1.0107,0.1513,-0.103,0.058,-0.019,6.749,32.263,25.499,51
0.7403,-0.6587,-0.0508,0.1235,6.6796393,-83.470314,188.88066,192.01895,-0.0727,-1.0136,0.1445,-0.102,0.024,-0.039,6.749,32.263,25.499,51
0.7398,-0.6593,-0.0516,0.1231,6.688676,-83.569664,188.74072,191.84453,-0.0722,-1,0.1289,-0.083,-0.047,-0.079,6.749,32.263,25.499,51
0.7397,-0.6594,-0.0522,0.1229,6.674275,-83.592606,188.63066,191.73067,-0.0722,-1.0063,0.1411,-0.064,-0.061,-0.096,6.749,32.263,25.499,51
0.7396,-0.6595,-0.0535,0.1225,6.6642494,-83.62275,188.38953,191.48943,-0.0756,-0.9926,0.1455,-0.028,-0.074,-0.12,6.299,29.863,27.299,51
0.7396,-0.6595,-0.0542,0.1223,6.6510196,-83.629906,188.25848,191.36209,-0.0737,-0.9902,0.1342,-0.019,-0.076,-0.129,6.299,29.863,27.299,51
0.7397,-0.6593,-0.0555,0.1217,6.5816875,-83.61803,187.97705,191.09256,-0.0761,-0.977,0.1391,-0.001,-0.047,-0.133,6.299,29.863,27.299,51
0.7399,-0.6593,-0.0564,0.1209,6.5225725,-83.61139,187.7312,190.84521,-0.0688,-0.9824,0.1323,-0.008,0.002,-0.111,6.299,29.863,27.299,51
0.7398,-0.6594,-0.0566,0.1205,6.501037,-83.629654,187.65456,190.75575,-0.0732,-0.9819,0.1342,-0.036,0.025,-0.085,6.299,29.863,27.299,51
0.7397,-0.6596,-0.0566,0.1201,6.4710193,-83.65475,187.61032,190.69275,-0.0786,-0.9897,0.1303,-0.05,0.061,-0.067,6.299,29.863,27.299,51
0.7395,-0.66,-0.0565,0.1191,6.3984213,-83.70411,187.51045,190.54993,-0.0781,-0.9887,0.125,-0.05,0.088,-0.065,6.299,29.863,27.299,51
0.7394,-0.6602,-0.0563,0.1185,6.362451,-83.72756,187.46982,190.484,-0.0898,-0.9882,0.1308,-0.049,0.107,-0.06,6.299,29.863,27.299,51
0.7393,-0.6605,-0.0561,0.1179,6.3171043,-83.75958,187.43147,190.4169,-0.0815,-0.9814,0.124,-0.049,0.128,-0.065,6.299,29.863,27.299,51
0.6629,-0.5864,0.3585,-0.2966,0.55508864,-82.13716,193.7786,182.74509,0.2246,-1.1577,0.4448,-0.281,0.026,-0.87,15.463,6.763,-20.087,51
0.6604,-0.5878,0.3576,-0.3004,1.2202891,-82.6007,192.91656,182.39978,0.225,-1.2016,0.5214,-0.141,0.428,-0.895,15.463,6.763,-20.087,51
0.6577,-0.5881,0.3577,-0.3057,2.011351,-83.01938,192.04092,181.90202,0.186,-1.2373,0.5776,0.017,0.836,-0.897,15.463,6.763,-20.087,51
0.6521,-0.5853,0.3601,-0.3198,10.704245,-83.67874,190.32144,180.45946,0.1127,-1.2705,0.6069,0.392,1.457,-0.88,15.463,6.763,-20.087,51
0.6403,-0.5499,0.3704,-0.3876,12.447667,-84.15638,184.91144,170.70175,-0.1948,-1.1005,0.0751,1.201,1.166,-0.583,15.463,6.763,-20.087,51
0.6428,-0.5375,0.3666,-0.4041,14.321615,-83.69797,183.6655,166.93427,-0.2026,-1.0332,-0.0019,1.201,0.505,-0.513,15.463,6.763,-20.087,51
0.6473,-0.5288,0.3586,-0.4153,15.626525,-83.19842,182.42354,163.54118,-0.1401,-0.9482,-0.0419,1.061,0.045,-0.507,9.763,9.313,-17.237,51
0.6499,-0.5251,0.3529,-0.4209,16.29407,-82.96258,181.59305,161.67038,-0.1049,-0.9438,-0.0312,0.883,-0.042,-0.45,9.763,9.313,-17.237,51
0.651,-0.5236,0.3503,-0.4232,16.584972,-82.85865,181.22737,160.87122,-0.0981,-0.9477,-0.0278,0.814,-0.057,-0.419,9.763,9.313,-17.237,51
0.652,-0.5223,0.3478,-0.4253,16.84362,-82.76585,180.87578,160.1317,-0.0913,-0.9233,-0.017,0.733,-0.067,-0.403,9.763,9.313,-17.237,51
0.6528,-0.5213,0.3456,-0.4272,17.512177,-82.69937,180.54755,159.4885,-0.0893,-0.9145,-0.0156,0.633,-0.077,-0.38,9.763,9.313,-17.237,51
0.6548,-0.5196,0.3381,-0.4321,17.522957,-82.60087,179.417,157.6547,-0.082,-0.8837,-0.0068,0.201,-0.144,-0.235,9.763,9.313,-17.237,51
0.6545,-0.5213,0.3355,-0.4326,17.453547,-82.79767,178.89609,157.36905,-0.04,-0.8754,0.0483,-0.099,-0.121,-0.13,9.763,9.313,-17.237,51
0.654,-0.5222,0.3354,-0.4323,17.335001,-82.905495,178.80762,157.47469,-0.0473,-0.895,0.0698,-0.189,-0.093,-0.095,9.763,9.313,-17.237,51
0.6532,-0.5234,0.3357,-0.4317,17.17585,-83.051544,178.75278,157.70552,-0.0625,-0.9038,0.0859,-0.259,-0.085,-0.06,9.763,9.313,-17.237,51
0.6516,-0.5276,0.3373,-0.428,16.469398,-83.415955,178.86346,158.76398,-0.0966,-0.9428,0.1489,-0.382,-0.211,0.088,9.763,9.313,-17.237,51
0.651,-0.5325,0.3388,-0.4215,15.0794735,-83.67366,179.2589,160.20267,-0.0791,-0.9711,0.1958,-0.45,-0.337,0.219,7.664,6.613,-19.787,51
0.6511,-0.5359,0.34,-0.416,14.667925,-83.77438,179.70047,161.33795,-0.0781,-0.9833,0.2236,-0.479,-0.395,0.313,7.664,6.613,-19.787,51
0.6513,-0.5376,0.3407,-0.4129,14.243429,-83.79878,179.98514,161.9604,-0.1005,-0.9936,0.2309,-0.494,-0.42,0.346,7.664,6.613,-19.787,51
0.6515,-0.5394,0.3413,-0.4097,13.794665,-83.82759,180.26404,162.59023,-0.104,-1.0136,0.2255,-0.512,-0.454,0.351,7.664,6.613,-19.787,51
0.6524,-0.5431,0.342,-0.4029,12.879365,-83.84404,180.83917,163.82281,-0.0776,-1.0253,0.2329,-0.483,-0.548,0.384,7.664,6.613,-19.787,51
0.653,-0.5449,0.3421,-0.3992,12.381382,-83.829124,181.14774,164.4362,-0.0712,-1.0107,0.2358,-0.463,-0.596,0.419,7.664,6.613,-19.787,51
0.6539,-0.5467,0.3423,-0.3953,11.868678,-83.78188,181.515,165.0759,-0.0766,-1.0004,0.2265,-0.447,-0.626,0.463,7.664,6.613,-19.787,51
0.6549,-0.5484,0.3424,-0.3912,11.330254,-83.71308,181.91063,165.71729,-0.0825,-1.0009,0.2177,-0.429,-0.667,0.508,7.664,6.613,-19.787,51
0.6561,-0.55,0.3424,-0.3868,10.785601,-83.61218,182.35214,166.36914,-0.0874,-1.0146,0.207,-0.41,-0.707,0.547,7.664,6.613,-19.787,51
0.659,-0.553,0.3423,-0.3775,9.639372,-83.33906,183.34036,167.68752,-0.0727,-1.0385,0.1982,-0.368,-0.778,0.64,7.664,6.613,-19.787,51
0.6624,-0.5558,0.3422,-0.3675,8.453702,-82.985466,184.47426,169.0587,-0.0581,-1.0356,0.1699,-0.356,-0.812,0.719,7.664,6.613,-19.787,51
0.6641,-0.5571,0.3423,-0.3623,7.858175,-82.78901,185.0994,169.78162,-0.0498,-1.0517,0.1616,-0.361,-0.809,0.756,7.664,6.613,-19.787,51
0.6658,-0.5584,0.3424,-0.357,7.2740235,-82.5877,185.74167,170.51662,-0.0517,-1.0419,0.164,-0.366,-0.802,0.797,7.664,6.613,-19.787,51
0.6675,-0.5595,0.3428,-0.3517,6.6930103,-82.36177,186.44351,171.27335,-0.0502,-1.0517,0.1635,-0.381,-0.777,0.826,7.664,6.613,-19.787,51
0.6691,-0.5607,0.3433,-0.3464,6.1350822,-82.14649,187.15167,172.05226,-0.0478,-1.0429,0.1611,-0.393,-0.737,0.835,7.664,6.613,-19.787,51
0.6705,-0.5618,0.3439,-0.3412,5.6120105,-81.93623,187.86319,172.8309,-0.0502,-1.0361,0.1596,-0.408,-0.694,0.828,7.664,6.613,-19.787,51
0.6729,-0.5639,0.3453,-0.3314,4.6659756,-81.54466,189.2422,174.33852,-0.0434,-1.0332,0.1621,-0.412,-0.607,0.779,10.813,7.513,-20.387,51
0.6775,-0.5672,0.3513,-0.3093,3.014642,-80.47764,192.87227,177.97498,-0.0532,-0.9975,0.1474,-0.388,-0.368,0.801,10.813,7.513,-20.387,51
0.6782,-0.5677,0.3528,-0.3053,2.8728309,-80.26433,193.59784,178.67264,-0.062,-1.0029,0.1391,-0.38,-0.34,0.783,10.813,7.513,-20.387,51
0.6788,-0.5681,0.3543,-0.3014,2.8102558,-80.05068,194.3159,179.35258,-0.0649,-0.9907,0.1445,-0.377,-0.31,0.76,10.813,7.513,-20.387,51
0.6798,-0.5687,0.3573,-0.294,2.8953433,-79.62809,195.71292,180.64803,-0.0668,-0.997,0.1284,-0.353,-0.257,0.728,10.813,7.513,-20.387,51
0.6802,-0.569,0.3589,-0.2906,3.0122743,-79.42784,196.38586,181.26854,-0.062,-0.9897,0.124,-0.348,-0.221,0.703,10.813,7.513,-20.387,51
0.6807,-0.5704,0.3651,-0.2789,3.666846,-78.77366,198.76996,183.53386,-0.0859,-0.9873,0.0805,-0.354,-0.114,0.55,10.813,7.513,-20.387,51
0.6805,-0.5709,0.3666,-0.2764,3.8239636,-78.65617,199.28853,184.06464,-0.0883,-0.9902,0.0668,-0.36,-0.089,0.505,10.813,7.513,-20.387,51
0.6802,-0.5715,0.368,-0.2742,3.9751637,-78.56748,199.74564,184.55775,-0.0834,-1.0063,0.0698,-0.365,-0.059,0.464,10.813,7.513,-20.387,51
0.6784,-0.5732,0.3724,-0.2689,4.3551617,-78.386696,200.95908,185.9333,-0.0825,-1.0366,0.0625,-0.35,0.05,0.355,15.013,6.914,-19.787,51
0.6758,-0.5746,0.3765,-0.2667,4.4880114,-78.371254,201.70535,186.90419,-0.0952,-1.0156,0.0786,-0.288,0.2,0.154,15.013,6.914,-19.787,51
0.6747,-0.5751,0.3778,-0.2667,4.470808,-78.41737,201.83435,187.1447,-0.1054,-1.0058,0.0781,-0.271,0.24,0.092,15.013,6.914,-19.787,51
0.6735,-0.5755,0.379,-0.2671,4.42548,-78.484344,201.89513,187.3237,-0.1113,-1.0048,0.0756,-0.235,0.289,0.034,15.013,6.914,-19.787,51
0.6723,-0.5758,0.3801,-0.2679,4.1743813,-78.56672,201.88956,187.4346,-0.1069,-1.0014,0.0839,-0.207,0.328,-0.026,15.013,6.914,-19.787,51
0.6686,-0.576,0.383,-0.2724,4.1743813,-78.88465,201.54524,187.41682,-0.1157,-1.0024,0.1103,-0.052,0.459,-0.183,15.013,6.914,-19.787,51
0.6686,-0.576,0.383,-0.2724,4.067535,-78.88465,201.54524,187.41682,-0.1157,-1.0024,0.1103,-0.052,0.459,-0.183,15.013,6.914,-19.787,51
0.6674,-0.5757,0.3839,-0.2747,3.9436567,-79.0029,201.32527,187.27325,-0.124,-1.0092,0.1162,0.005,0.511,-0.241,15.013,6.914,-19.787,51
0.6662,-0.5753,0.3846,-0.2774,3.8300464,-79.142044,201.02397,187.05096,-0.1352,-1.0141,0.102,0.063,0.55,-0.291,15.013,6.914,-19.787,51
0.6651,-0.5748,0.3853,-0.2805,3.7154129,-79.28727,200.67299,186.76309,-0.1552,-1.0107,0.0966,0.129,0.576,-0.352,15.013,6.914,-19.787,51
0.6641,-0.5741,0.3856,-0.2838,3.6124067,-79.439026,200.25139,186.38666,-0.1704,-1.0053,0.103,0.185,0.572,-0.413,15.013,6.914,-19.787,51
0.6618,-0.5718,0.3847,-0.2948,3.3856807,-79.96491,198.61581,184.86115,-0.2011,-0.999,0.0717,0.376,0.44,-0.575,15.013,6.914,-19.787,51
0.6615,-0.571,0.3836,-0.2985,3.3386896,-80.14229,197.9765,184.22676,-0.1967,-0.9956,0.0625,0.434,0.368,-0.614,15.013,6.914,-19.787,51
0.6614,-0.5694,0.3802,-0.3058,3.353629,-80.50206,196.57516,182.80118,-0.1821,-0.9868,0.0429,0.524,0.209,-0.654,15.013,6.914,-19.787,51
0.6617,-0.5687,0.378,-0.3093,3.421263,-80.67467,195.84058,182.03316,-0.1694,-0.9897,0.0439,0.557,0.136,-0.658,15.313,5.414,-19.037,51
0.6622,-0.5679,0.3756,-0.3126,3.529765,-80.82086,195.12624,181.24545,-0.1513,-1,0.0322,0.589,0.067,-0.662,15.313,5.414,-19.037,51
0.6627,-0.5672,0.3729,-0.3159,3.694693,-80.98025,194.36972,180.42845,-0.1313,-1.0097,0.0346,0.61,0.021,-0.67,15.313,5.414,-19.037,51
0.6634,-0.5665,0.37,-0.3192,3.9241257,-81.12763,193.60062,179.57256,-0.1132,-1.0224,0.0385,0.632,-0.018,-0.686,15.313,5.414,-19.037,51
0.6641,-0.5658,0.3669,-0.3226,4.2176147,-81.27912,192.7976,178.67694,-0.1005,-1.0273,0.0468,0.664,-0.036,-0.721,15.313,5.414,-19.037,51
0.6659,-0.5635,0.3572,-0.3334,5.4471645,-81.727875,190.30121,175.84195,-0.0385,-1.0278,0.0756,0.691,0.004,-0.773,15.313,5.414,-19.037,51
0.6664,-0.5627,0.354,-0.3374,5.961862,-81.87907,189.43684,174.84196,-0.019,-1.0268,0.0888,0.695,0.054,-0.794,15.313,5.414,-19.037,51
0.6667,-0.5617,0.351,-0.3416,6.523371,-82.02133,188.58775,173.83159,0.0029,-1.0156,0.0986,0.699,0.122,-0.805,15.313,5.414,-19.037,51
0.6668,-0.5606,0.3481,-0.3461,7.787303,-82.16927,187.72157,172.79239,0.0263,-1.0024,0.1123,0.699,0.211,-0.825,15.313,5.414,-19.037,51
0.6663,-0.5577,0.3434,-0.3562,8.4662,-82.44527,186.04774,170.67557,0.0634,-0.9921,0.1416,0.697,0.448,-0.827,15.313,5.414,-19.037,51
0.6657,-0.5559,0.3418,-0.3617,10.775273,-82.567276,185.28024,169.63763,0.0698,-0.9775,0.1621,0.695,0.609,-0.823,15.313,5.414,-19.037,51
0.6619,-0.5488,0.3399,-0.3807,11.599822,-82.93281,183.15399,166.5163,0.0405,-0.958,0.1767,0.65,1.038,-0.847,15.313,5.414,-19.037,51
0.6495,-0.5311,0.344,-0.4214,16.606709,-83.614334,179.92783,160.87523,-0.0449,-0.9916,0.1713,0.522,1.294,-0.724,7.063,7.963,-20.087,51
0.6358,-0.5136,0.3515,-0.4563,21.141447,-84.184425,177.96603,156.54083,-0.1323,-1.1948,0.1606,0.408,1.136,-0.689,7.063,7.963,-20.087,51
0.625,-0.5048,0.3531,-0.4793,25.578478,-84.95782,176.0738,153.50433,-0.1406,-1.1098,0.1884,0.375,1.028,-0.868,7.063,7.963,-20.087,51
0.6165,-0.4991,0.3528,-0.4961,25.578478,-85.63612,174.49554,151.15327,-0.1577,-0.9853,0.1782,0.404,0.905,-0.959,7.063,7.963,-20.087,51
0.6165,-0.4991,0.3528,-0.4961,27.564154,-85.63612,174.49554,151.15327,-0.1577,-0.9853,0.1782,0.404,0.905,-0.959,7.063,7.963,-20.087,51
0.6078,-0.4923,0.3491,-0.5159,28.708607,-86.29991,172.47542,147.82196,-0.1645,-0.8872,0.1572,0.527,0.57,-0.867,7.063,7.963,-20.087,51
0.6064,-0.4907,0.3475,-0.5201,29.256874,-86.38043,172.025,146.96185,-0.1606,-0.8725,0.1572,0.567,0.474,-0.833,1.963,6.463,-17.087,51
0.6032,-0.4869,0.3402,-0.5322,30.737028,-86.56213,170.47348,144.09671,-0.1064,-0.8583,0.1391,0.622,0.257,-0.744,1.963,6.463,-17.087,51
0.6024,-0.4857,0.3375,-0.5359,31.199638,-86.58191,169.98207,143.13623,-0.1005,-0.8588,0.142,0.626,0.215,-0.728,1.963,6.463,-17.087,51
0.6016,-0.4845,0.3348,-0.5394,31.657743,-86.59062,169.51169,142.19972,-0.081,-0.8525,0.1362,0.613,0.206,-0.714,1.963,6.463,-17.087,51
0.6008,-0.4834,0.3322,-0.5429,32.108418,-86.60206,169.0493,141.284,-0.0747,-0.8647,0.125,0.585,0.207,-0.703,1.963,6.463,-17.087,51
0.5999,-0.4823,0.3298,-0.5463,32.54609,-86.61704,168.6131,140.41318,-0.0683,-0.8657,0.1254,0.549,0.227,-0.691,1.963,6.463,-17.087,51
0.5967,-0.4795,0.3242,-0.5556,33.693497,-86.73182,167.47293,138.20563,-0.0776,-0.8901,0.1166,0.409,0.26,-0.632,1.963,6.463,-17.087,51
0.5943,-0.4782,0.3219,-0.5606,34.335693,-86.87454,166.87701,137.15451,-0.0629,-0.9008,0.1142,0.318,0.235,-0.584,1.963,6.463,-17.087,51
0.5929,-0.4777,0.321,-0.563,34.655197,-86.979,166.58417,136.69467,-0.0493,-0.8955,0.1372,0.254,0.269,-0.581,1.963,6.463,-17.087,51
0.5879,-0.4758,0.321,-0.5698,35.51776,-87.38129,165.98439,135.78494,-0.103,-0.9233,0.1733,0.063,0.431,-0.48,1.963,6.463,-17.087,51
0.5862,-0.4752,0.3217,-0.5717,35.72525,-87.53196,165.87074,135.64574,-0.1367,-0.9335,0.1723,0.006,0.423,-0.43,1.963,6.463,-17.087,51
0.5833,-0.4746,0.3233,-0.5743,35.954056,-87.826805,165.71217,135.5896,-0.2021,-0.9272,0.187,-0.066,0.27,-0.33,1.963,6.463,-17.087,51
0.5823,-0.4747,0.3239,-0.5749,35.945953,-87.95227,165.64885,135.63934,-0.2099,-0.9287,0.2001,-0.095,0.138,-0.277,-4.037,6.463,-18.887,51
0.5817,-0.4752,0.3243,-0.5749,35.855724,-88.06146,165.59201,135.75412,-0.226,-0.9301,0.1992,-0.12,-0.015,-0.211,-4.037,6.463,-18.887,51
0.5821,-0.4791,0.324,-0.5714,34.700115,-88.30502,165.41261,136.42902,-0.2026,-0.9663,0.1982,-0.168,-0.488,-0.015,-4.037,6.463,-18.887,51
0.5842,-0.4832,0.3226,-0.5665,34.251926,-88.361115,165.32533,137.08092,-0.145,-0.9921,0.2109,-0.18,-0.723,0.135,-4.037,6.463,-18.887,51
0.5857,-0.4855,0.3219,-0.5634,33.7656,-88.35885,165.33403,137.49939,-0.1171,-1.0224,0.2133,-0.206,-0.793,0.211,-4.037,6.463,-18.887,51
0.5873,-0.4879,0.3213,-0.56,33.25243,-88.353485,165.37158,137.97879,-0.0917,-1.04,0.2211,-0.243,-0.827,0.276,-4.037,6.463,-18.887,51
0.5889,-0.4904,0.3209,-0.5564,32.71895,-88.35743,165.43507,138.5249,-0.0761,-1.0566,0.2211,-0.271,-0.839,0.319,-4.037,6.463,-18.887,51
0.5905,-0.4929,0.3206,-0.5526,32.222813,-88.35994,165.52487,139.11426,-0.0478,-1.0605,0.2397,-0.313,-0.836,0.355,-4.037,6.463,-18.887,51
0.592,-0.4954,0.3201,-0.5491,31.70768,-88.37267,165.57208,139.63464,-0.0327,-1.0859,0.2436,-0.35,-0.803,0.385,-4.037,6.463,-18.887,51
0.5933,-0.4979,0.32,-0.5454,31.180025,-88.40713,165.66043,140.25227,-0.0234,-1.103,0.2426,-0.39,-0.759,0.429,-4.037,6.463,-18.887,51
0.5947,-0.5002,0.3203,-0.5416,30.645012,-88.41853,165.82826,140.93188,-0.0141,-1.1411,0.2495,-0.428,-0.698,0.502,-4.037,6.463,-18.887,51
0.5985,-0.5065,0.3238,-0.5293,28.870354,-88.44284,166.7229,143.47974,-0.0405,-1.3012,0.1894,-0.59,-0.571,0.68,-4.037,6.463,-18.887,51
0.6041,-0.5209,0.3327,-0.5028,25.044847,-88.68032,168.73494,149.32796,-0.082,-1.2739,0.1162,-0.919,-0.885,0.784,-0.887,5.414,-14.687,51
0.6053,-0.5249,0.3342,-0.4963,24.092714,-88.76231,169.14453,150.69702,-0.0776,-1.2343,0.1166,-0.976,-1.021,0.826,-0.887,5.414,-14.687,51
0.6082,-0.5339,0.3364,-0.4813,21.956827,-88.89077,170.0495,153.64067,-0.0449,-1.1694,0.1054,-1.056,-1.315,0.923,-0.887,5.414,-14.687,51
0.61,-0.5389,0.3371,-0.4729,20.781658,-88.93065,170.55481,155.19781,-0.0273,-1.1557,0.104,-1.074,-1.453,0.974,-0.887,5.414,-14.687,51
0.6172,-0.5541,0.3381,-0.4444,16.979336,-88.78177,172.56813,160.08595,0.0439,-1.1191,0.1215,-1.055,-1.765,1.181,-0.887,5.414,-14.687,51
0.62,-0.559,0.3382,-0.4341,15.636157,-88.64875,173.41037,161.75594,0.061,-1.1162,0.1289,-1.026,-1.823,1.249,-0.887,5.414,-14.687,51
0.6231,-0.5637,0.3383,-0.4234,14.277376,-88.45544,174.37593,163.44804,0.0791,-1.1191,0.1464,-0.998,-1.86,1.322,-0.887,5.414,-14.687,51
0.6265,-0.5681,0.3383,-0.4125,12.898953,-88.20221,175.44115,165.11069,0.0859,-1.1171,0.1582,-0.94,-1.892,1.398,-0.887,5.414,-14.687,51
0.6301,-0.5721,0.3382,-0.4013,11.51629,-87.887505,176.61624,166.75505,0.0996,-1.1372,0.1694,-0.866,-1.915,1.468,-0.887,5.414,-14.687,51
0.634,-0.5757,0.3381,-0.39,10.132992,-87.50852,177.89734,168.3615,0.1162,-1.1391,0.1718,-0.773,-1.924,1.538,-0.887,5.414,-14.687,51
0.6383,-0.5787,0.3379,-0.3786,8.741877,-87.04594,179.28964,169.89464,0.1127,-1.1464,0.1806,-0.68,-1.925,1.603,-0.887,5.414,-14.687,51
0.6428,-0.5812,0.3378,-0.367,7.357549,-86.51583,180.8026,171.41505,0.1123,-1.1586,0.1762,-0.578,-1.918,1.693,-0.887,5.414,-14.687,51
0.6477,-0.5831,0.3377,-0.3553,5.996632,-85.902,182.42538,172.87564,0.1137,-1.1596,0.1674,-0.487,-1.909,1.776,-0.887,5.414,-14.687,51
0.658,-0.5856,0.3378,-0.3315,3.5067835,-84.50426,185.93602,175.74748,0.103,-1.1967,0.1191,-0.35,-1.864,1.935,-0.887,5.414,-14.687,51
0.6633,-0.5861,0.3381,-0.3194,2.685606,-83.71657,187.8237,177.16873,0.1035,-1.2075,0.0957,-0.295,-1.833,2.002,-0.887,5.414,-14.687,51
0.6686,-0.5863,0.3385,-0.3074,2.5529969,-82.902275,189.73021,178.5585,0.1005,-1.247,0.0747,-0.243,-1.774,2.037,6.914,1.664,-13.637,51
0.6738,-0.5861,0.3391,-0.2956,3.1533866,-82.06099,191.65079,179.91365,0.0986,-1.2626,0.0581,-0.202,-1.698,2.045,6.914,1.664,-13.637,51
0.6878,-0.5838,0.3419,-0.2629,6.228302,-79.55809,197.13387,183.64622,0.0878,-1.228,0.062,-0.135,-1.341,1.906,6.914,1.664,-13.637,51
0.6917,-0.5826,0.3432,-0.2533,7.226069,-78.77046,198.79802,184.75223,0.0976,-1.1938,0.0683,-0.121,-1.188,1.826,6.914,1.664,-13.637,51
0.6981,-0.5799,0.3467,-0.2364,8.940227,-77.30802,201.86784,186.78604,0.1025,-1.0986,0.0859,-0.102,-0.832,1.632,6.914,1.664,-13.637,51
0.7026,-0.5771,0.351,-0.2234,10.264812,-76.07295,204.4338,188.45595,0.1196,-1.0058,0.0917,-0.099,-0.445,1.513,6.914,1.664,-13.637,51
0.7041,-0.5754,0.354,-0.218,10.826586,-75.48355,205.67697,189.2417,0.1083,-0.9707,0.0903,-0.104,-0.239,1.479,6.914,1.664,-13.637,51
0.7053,-0.5736,0.3576,-0.2132,11.334143,-74.9006,206.91705,190.00735,0.0937,-0.9472,0.0864,-0.109,-0.038,1.451,6.914,1.664,-13.637,51
0.7061,-0.5715,0.3618,-0.209,11.854423,-74.313225,208.16374,190.7442,0.0698,-0.9116,0.0913,-0.101,0.147,1.415,6.914,1.664,-13.637,51
0.7067,-0.5692,0.3667,-0.2049,12.331018,-73.689,209.49539,191.51665,0.0405,-0.8759,0.0844,-0.104,0.297,1.368,6.914,1.664,-13.637,51
0.7071,-0.5644,0.3768,-0.1984,13.210083,-72.51746,211.96098,192.86504,-0.02,-0.833,0.0727,-0.082,0.482,1.233,6.914,1.664,-13.637,51
0.7071,-0.562,0.3818,-0.1957,13.631985,-71.963165,213.10544,193.4582,-0.0585,-0.8056,0.0644,-0.054,0.506,1.159,6.914,1.664,-13.637,51
0.7071,-0.5595,0.3865,-0.1933,14.049214,-71.42561,214.16702,193.97069,-0.0732,-0.7768,0.0625,-0.018,0.5,1.09,6.914,1.664,-13.637,51
0.7073,-0.557,0.3908,-0.1911,14.463282,-70.90365,215.13977,194.40306,-0.0937,-0.7563,0.0654,0.037,0.456,1.028,6.914,1.664,-13.637,51
0.7077,-0.5545,0.3946,-0.189,14.86247,-70.398285,216.02296,194.76218,-0.1201,-0.7412,0.0693,0.086,0.399,0.963,6.914,1.664,-13.637,51
0.7083,-0.552,0.398,-0.1871,15.266849,-69.91129,216.81718,195.0461,-0.1147,-0.7192,0.0668,0.152,0.322,0.901,16.213,-7.787,-18.887,51
0.7091,-0.5494,0.401,-0.1852,16.382158,-69.42513,217.552,195.27426,-0.1303,-0.6933,0.0571,0.208,0.249,0.852,16.213,-7.787,-18.887,51
0.7129,-0.5415,0.4073,-0.1804,17.499937,-68.069756,219.22215,195.53372,-0.1162,-0.6782,0.0712,0.37,0.084,0.689,16.213,-7.787,-18.887,51
0.7208,-0.5278,0.4125,-0.1777,17.907799,-66.23967,220.53978,194.80879,-0.1591,-0.664,0.0629,0.536,0.094,0.375,16.213,-7.787,-18.887,51
0.7222,-0.5251,0.4133,-0.1779,18.094727,-65.93628,220.67781,194.57513,-0.1655,-0.7006,0.0454,0.561,0.122,0.344,16.213,-7.787,-18.887,51
0.7237,-0.5223,0.4142,-0.1784,18.27137,-65.63199,220.79352,194.30125,-0.1918,-0.7509,0.0336,0.576,0.162,0.322,16.213,-7.787,-18.887,51
0.725,-0.5195,0.4151,-0.179,18.399612,-65.34192,220.90157,194.02815,-0.205,-0.8066,0.0112,0.565,0.191,0.293,16.213,-7.787,-18.887,51
0.7259,-0.5171,0.416,-0.1798,18.496014,-65.112526,220.98228,193.7821,-0.2275,-0.8793,0.0014,0.542,0.23,0.273,16.213,-7.787,-18.887,51
0.7276,-0.511,0.4189,-0.1841,18.497,-64.65177,221.0195,192.96725,-0.3198,-1.0678,-0.0385,0.474,0.338,0.012,16.213,-7.787,-18.887,51
0.7279,-0.5094,0.4193,-0.1864,18.330566,-64.61672,220.85162,192.60101,-0.3466,-1.0976,-0.0507,0.458,0.343,-0.156,16.213,-7.787,-18.887,51
0.728,-0.5082,0.4192,-0.1894,18.073084,-64.681915,220.53014,192.1575,-0.372,-1.1484,-0.0522,0.454,0.345,-0.353,16.213,-7.787,-18.887,51
0.7275,-0.5069,0.4179,-0.1976,17.254635,-65.094765,219.4674,191.0487,-0.3842,-1.1992,-0.0102,0.442,0.391,-0.736,19.213,-12.287,-19.337,51
0.7267,-0.5069,0.4168,-0.2026,16.764523,-65.44356,218.75787,190.42856,-0.3793,-1.2407,0.0004,0.401,0.426,-0.885,19.213,-12.287,-19.337,51
0.7225,-0.5086,0.4132,-0.22,14.917545,-66.83945,216.23766,188.45459,-0.4194,-1.4008,-0.0039,0.293,0.559,-1.226,19.213,-12.287,-19.337,51
0.7102,-0.5173,0.4001,-0.2603,10.421268,-70.69241,209.28748,183.81105,-0.4331,-1.291,0.1704,0.235,0.575,-2.196,19.213,-12.287,-19.337,51
0.6915,-0.5397,0.3685,-0.3075,5.935152,-76.77385,197.63847,177.43283,-0.0917,-0.7968,0.4248,-0.094,-0.198,-2.695,19.213,-12.287,-19.337,51
0.688,-0.545,0.361,-0.3148,5.737037,-77.942764,195.28294,176.23569,0.0141,-0.7685,0.4614,-0.112,-0.336,-2.504,19.213,-12.287,-19.337,51
0.6834,-0.5531,0.3469,-0.3263,5.978419,-79.72785,191.27164,173.93385,0.0981,-0.8398,0.5024,-0.077,-0.441,-1.8,19.213,-12.287,-19.337,51
0.6823,-0.5562,0.3407,-0.33,6.3385396,-80.34317,189.7341,172.98256,0.0722,-0.9101,0.4824,-0.004,-0.548,-1.476,19.213,-12.287,-19.337,51
0.6822,-0.5586,0.3341,-0.3329,6.790708,-80.801125,188.3308,171.97491,0.0751,-0.9829,0.4663,0.184,-0.738,-1.276,19.213,-12.287,-19.337,51
0.6831,-0.5605,0.3272,-0.3347,7.350574,-81.10317,187.10243,170.98254,0.1503,-1.0161,0.4565,0.418,-0.953,-1.112,5.563,-8.537,-12.437,51
0.6865,-0.5621,0.3138,-0.3378,8.587022,-81.342224,184.99757,168.87013,0.3754,-1.0488,0.52,0.695,-0.847,-0.89,5.563,-8.537,-12.437,51
0.6875,-0.5619,0.3088,-0.3406,9.175756,-81.41587,184.07004,167.81105,0.4516,-1.0776,0.5258,0.679,-0.447,-0.894,5.563,-8.537,-12.437,51
0.6859,-0.5601,0.3036,-0.3515,10.393192,-81.75966,182.19199,165.60591,0.4428,-1.1186,0.4892,0.517,0.683,-1.161,5.563,-8.537,-12.437,51
0.6828,-0.5585,0.3035,-0.36,11.124841,-82.086235,181.18657,164.4359,0.3969,-1.1093,0.4301,0.408,1.27,-1.341,5.563,-8.537,-12.437,51
0.6671,-0.5511,0.3107,-0.3932,14.129083,-83.46051,178.19907,160.9071,0.1245,-1.0517,0.2055,0.213,2.428,-1.521,5.563,-8.537,-12.437,51
0.6609,-0.5478,0.3145,-0.405,17.733099,-83.93972,177.32916,159.80853,0.0292,-1.0522,0.144,0.222,2.519,-1.492,5.563,-8.537,-12.437,51
0.6317,-0.5248,0.3287,-0.4662,22.378492,-85.81122,173.12556,152.9454,-0.1557,-0.7949,0.0371,0.589,1.773,-1.137,5.563,-8.537,-12.437,51
0.628,-0.521,0.3297,-0.4746,23.417849,-85.99714,172.57323,151.81958,-0.1679,-0.7763,0.0224,0.572,1.669,-1.093,5.563,-8.537,-12.437,51
0.6211,-0.5141,0.3309,-0.4901,25.324495,-86.35357,171.51431,149.659,-0.2089,-0.7602,0.0019,0.537,1.42,-1.034,5.563,-8.537,-12.437,51
0.618,-0.5112,0.3309,-0.4971,26.17423,-86.52815,170.97911,148.61726,-0.2368,-0.7568,-0.0009,0.524,1.257,-1.005,-0.887,-7.187,-9.287,51
0.6152,-0.5085,0.3305,-0.5035,26.931828,-86.67709,170.46536,147.59921,-0.2416,-0.767,-0.0107,0.52,1.083,-0.958,-0.887,-7.187,-9.287,51
0.6016,-0.4976,0.3209,-0.536,30.87589,-87.47847,167.05383,141.40607,-0.1118,-0.7968,0.0805,0.192,0.442,-0.557,-0.887,-7.187,-9.287,51
0.5979,-0.4959,0.3208,-0.5416,31.572554,-87.76171,166.54443,140.62386,-0.1372,-0.8183,0.1235,0.079,0.516,-0.472,-0.887,-7.187,-9.287,51
0.5961,-0.4952,0.3213,-0.5441,31.83011,-87.91526,166.35854,140.37009,-0.1606,-0.8315,0.1269,0.022,0.505,-0.408,-0.887,-7.187,-9.287,51
0.5932,-0.4941,0.3232,-0.5471,32.053516,-88.16658,166.23547,140.27724,-0.1782,-0.8945,0.1333,-0.084,0.384,-0.231,-0.887,-7.187,-9.287,51
0.5896,-0.4958,0.3289,-0.546,31.619913,-88.704994,166.43726,141.57187,-0.1943,-1.1225,0.125,-0.375,-0.046,0.06,-0.887,-7.187,-9.287,51
0.5894,-0.4972,0.3297,-0.5445,31.338764,-88.82535,166.46614,142.00998,-0.1699,-1.1757,0.1367,-0.387,-0.188,0.16,-0.887,-7.187,-9.287,51
0.5899,-0.5005,0.331,-0.5401,30.641558,-88.992516,166.61469,143.0343,-0.1176,-1.1997,0.1909,-0.402,-0.407,0.262,-6.887,-8.537,-7.337,51
0.5904,-0.5025,0.3314,-0.5375,30.266684,-89.07053,166.68002,143.57791,-0.0903,-1.2021,0.225,-0.412,-0.465,0.28,-6.887,-8.537,-7.337,51
0.5909,-0.5045,0.3318,-0.5348,29.90862,-89.1453,166.7548,144.13557,-0.0649,-1.1928,0.2568,-0.42,-0.489,0.288,-6.887,-8.537,-7.337,51
0.5913,-0.5064,0.3323,-0.5322,29.565725,-89.2221,166.8373,144.69281,-0.0385,-1.1762,0.2856,-0.428,-0.452,0.288,-6.887,-8.537,-7.337,51
0.5916,-0.5082,0.333,-0.5297,28.583881,-89.30137,166.93791,145.2659,-0.0253,-1.1445,0.2963,-0.434,-0.389,0.287,-6.887,-8.537,-7.337,51
0.5919,-0.514,0.3401,-0.5193,27.751064,-89.56665,167.91801,148.24213,-0.0747,-1.1918,0.1904,-0.651,-0.169,0.541,-6.887,-8.537,-7.337,51
0.5952,-0.525,0.3533,-0.4951,24.252672,-89.53485,170.53073,154.31908,-0.0541,-1.3149,0.0981,-0.826,-0.816,0.932,-6.887,-8.537,-7.337,51
0.5971,-0.528,0.3547,-0.4886,23.347406,-89.422745,171.12598,155.56012,-0.0122,-1.2758,0.1206,-0.776,-0.981,0.936,-6.887,-8.537,-7.337,51
0.6048,-0.5373,0.3566,-0.4671,20.39911,-88.87686,173.08127,159.1037,0.059,-1.0957,0.1909,-0.665,-1.284,1.035,-6.887,-8.537,-7.337,51
0.6079,-0.5402,0.3572,-0.4592,19.340971,-88.6051,173.90154,160.32878,0.0683,-1.0795,0.1762,-0.649,-1.303,1.136,-6.887,-8.537,-7.337,51
0.6374,-0.5562,0.3712,-0.3825,9.724067,-84.63184,184.9441,172.14693,0.0634,-1.3012,0.0917,-0.753,-1.39,1.753,-5.837,-13.787,-5.837,51
0.6448,-0.5593,0.3746,-0.3619,7.4839664,-83.43319,188.18762,175.09053,0.0766,-1.2695,0.1186,-0.672,-1.354,1.719,-5.837,-13.787,-5.837,51
0.6519,-0.5611,0.3779,-0.3424,5.7035723,-82.173676,191.42352,177.74574,0.0673,-1.1918,0.1533,-0.573,-1.203,1.67,-5.837,-13.787,-5.837,51
0.6551,-0.5616,0.3798,-0.3333,5.075231,-81.54537,193.01518,178.99098,0.0737,-1.1254,0.1621,-0.527,-1.087,1.627,-5.837,-13.787,-5.837,51
0.658,-0.5619,0.3814,-0.3251,4.646146,-80.965324,194.45018,180.07784,0.0634,-1.0727,0.1708,-0.5,-0.967,1.571,-5.837,-13.787,-5.837,51
0.6606,-0.562,0.3832,-0.3174,4.4400215,-80.39885,195.84802,181.11673,0.0571,-1.0146,0.1743,-0.469,-0.844,1.502,-5.837,-13.787,-5.837,51
0.6686,-0.56,0.3928,-0.2913,5.573941,-78.169235,201.19148,184.8004,0.08,-0.8764,0.1362,-0.334,-0.37,1.402,-5.837,-13.787,-5.837,51
0.673,-0.5554,0.4034,-0.2751,7.478168,-76.32149,205.31137,187.23189,0.0117,-0.8364,0.102,-0.231,-0.081,1.35,-3.587,-15.737,-7.637,51
0.6758,-0.5514,0.4104,-0.2659,8.768295,-75.086075,207.84312,188.52623,-0.0502,-0.8066,0.0766,-0.112,-0.048,1.266,-3.587,-15.737,-7.637,51
0.6774,-0.5492,0.4135,-0.2615,9.380902,-74.46586,209.02693,189.06935,-0.0659,-0.7812,0.0532,-0.058,-0.084,1.233,-3.587,-15.737,-7.637,51
0.6791,-0.547,0.4162,-0.2572,9.990546,-73.86153,210.1329,189.55066,-0.0874,-0.7705,0.0488,-0.005,-0.126,1.201,-3.587,-15.737,-7.637,51
0.6832,-0.5422,0.4209,-0.2488,11.174408,-72.62476,212.21371,190.3348,-0.103,-0.7602,0.0458,0.123,-0.218,1.153,-3.587,-15.737,-7.637,51
0.6856,-0.5396,0.4227,-0.2449,13.270736,-72.01385,213.13014,190.60092,-0.1118,-0.7578,0.0458,0.188,-0.259,1.111,-3.587,-15.737,-7.637,51
0.6959,-0.5291,0.427,-0.2308,13.736774,-69.74185,216.07208,191.1916,-0.1147,-0.7456,0.0312,0.338,-0.356,0.893,-3.587,-15.737,-7.637,51
0.6985,-0.5265,0.4275,-0.2278,14.181356,-69.229515,216.62906,191.23415,-0.1191,-0.7587,0.0361,0.376,-0.346,0.842,-3.587,-15.737,-7.637,51
0.7035,-0.5212,0.4285,-0.2229,15.016747,-68.26666,217.57707,191.19902,-0.1152,-0.7812,0.0263,0.417,-0.269,0.728,-3.587,-15.737,-7.637,51
0.7057,-0.5186,0.429,-0.2208,15.393784,-67.8224,217.99477,191.1642,-0.1293,-0.8037,0.02,0.419,-0.232,0.684,-3.587,-15.737,-7.637,51
0.7079,-0.5161,0.4294,-0.219,15.759406,-67.40669,218.35071,191.09546,-0.1542,-0.8315,0.0136,0.417,-0.201,0.645,-3.587,-15.737,-7.637,51
0.7131,-0.5098,0.4303,-0.215,16.506845,-66.40863,219.14629,190.87848,-0.1831,-0.956,-0.0166,0.385,-0.136,0.478,-0.287,-14.987,-11.987,51
0.7165,-0.5048,0.4306,-0.2149,16.82841,-65.834785,219.34442,190.36687,-0.1894,-1.0952,-0.0043,0.388,0.064,0.14,-0.287,-14.987,-11.987,51
0.717,-0.5034,0.4308,-0.2161,16.795473,-65.75662,219.27454,190.11493,-0.206,-1.1547,0.0087,0.378,0.164,-0.003,-0.287,-14.987,-11.987,51
0.7173,-0.5021,0.4308,-0.2182,16.67102,-65.75263,219.0713,189.76253,-0.2124,-1.1972,0.0292,0.388,0.248,-0.177,-0.287,-14.987,-11.987,51
0.7172,-0.5011,0.4306,-0.2211,16.450138,-65.84243,218.74162,189.34589,-0.227,-1.1958,0.0629,0.404,0.33,-0.375,-0.287,-14.987,-11.987,51
0.7167,-0.5005,0.4303,-0.2249,16.178717,-66.034935,218.28128,188.86655,-0.2475,-1.2001,0.0727,0.398,0.403,-0.554,-0.287,-14.987,-11.987,51
0.7159,-0.5001,0.4298,-0.2291,15.834695,-66.28648,217.74158,188.35556,-0.2426,-1.2163,0.1,0.369,0.457,-0.697,-0.287,-14.987,-11.987,51
0.713,-0.5005,0.4287,-0.2391,15.020759,-67.034966,216.4099,187.28896,-0.2563,-1.2915,0.1206,0.267,0.588,-0.927,-0.287,-14.987,-11.987,51
0.7085,-0.5019,0.4278,-0.2508,14.058596,-68.021324,214.8368,186.18724,-0.2636,-1.413,0.1552,0.176,0.745,-1.145,-0.287,-14.987,-11.987,51
0.7055,-0.5031,0.4274,-0.2575,13.517658,-68.63408,213.91435,185.6137,-0.2553,-1.4516,0.1787,0.134,0.838,-1.289,-0.287,-14.987,-11.987,51
0.6977,-0.5065,0.4261,-0.2736,12.289901,-70.19055,211.55896,184.27222,-0.2495,-1.3579,0.3178,0.075,1.047,-1.72,-0.287,-14.987,-11.987,51
0.6928,-0.509,0.425,-0.2831,11.662569,-71.176025,210.04944,183.50179,-0.25,-1.2451,0.4125,0.021,1.129,-1.982,-0.287,-14.987,-11.987,51
0.6769,-0.5189,0.4175,-0.3132,10.176763,-74.61784,204.36311,180.83984,-0.2377,-0.915,0.4951,-0.065,0.821,-2.37,-0.287,-14.987,-11.987,51
0.6726,-0.5222,0.4134,-0.3221,9.888724,-75.70483,202.34718,179.859,-0.2001,-0.8701,0.4824,-0.048,0.591,-2.261,-5.387,-11.987,-12.437,51
0.6691,-0.5253,0.4091,-0.3299,9.709123,-76.67744,200.45921,178.91275,-0.1508,-0.8676,0.476,0.003,0.37,-2.026,-5.387,-11.987,-12.437,51
0.6656,-0.5296,0.4004,-0.3406,9.30986,-78.01789,197.51627,177.21782,-0.1152,-0.9624,0.4453,0.173,-0.129,-1.316,-5.387,-11.987,-12.437,51
0.6652,-0.5316,0.396,-0.3433,9.068003,-78.4651,196.43481,176.58804,-0.0981,-1.0288,0.4526,0.239,-0.426,-1.057,-5.387,-11.987,-12.437,51
0.6692,-0.5353,0.3789,-0.349,8.732052,-79.26379,193.36508,174.05179,0.0864,-1.1459,0.3701,0.678,-0.874,-0.91,-5.387,-11.987,-12.437,51
0.6723,-0.5366,0.3659,-0.3549,9.231459,-79.74004,190.98149,171.74908,0.1635,-1.0927,0.3676,0.798,-0.649,-1.138,-5.387,-11.987,-12.437,51
0.672,-0.5374,0.3544,-0.3657,10.492121,-80.48594,188.13637,169.0552,0.1772,-1.0185,0.3496,0.687,-0.04,-1.468,-5.387,-11.987,-12.437,51
0.6702,-0.5376,0.3499,-0.3732,11.345642,-80.98003,186.58856,167.61646,0.1728,-0.9633,0.3286,0.598,0.338,-1.596,-5.387,-11.987,-12.437,51
0.6672,-0.5375,0.3466,-0.3817,12.30984,-81.53285,185.05626,166.20691,0.1601,-0.9233,0.2944,0.502,0.737,-1.681,-5.387,-11.987,-12.437,51
0.6632,-0.537,0.3446,-0.3909,13.354793,-82.11673,183.6002,164.86778,0.1044,-0.8847,0.2358,0.419,1.083,-1.73,-5.387,-11.987,-12.437,51
0.6585,-0.5363,0.3437,-0.4006,14.479693,-82.728874,182.2149,163.60811,0.0556,-0.8671,0.1899,0.351,1.342,-1.753,-5.387,-11.987,-12.437,51
0.6534,-0.5352,0.3432,-0.4106,15.645802,-83.33885,180.86467,162.34276,0.0063,-0.851,0.1523,0.322,1.504,-1.758,-5.387,-11.987,-12.437,51
0.6482,-0.5339,0.3431,-0.4207,16.818901,-83.93554,179.57507,161.10234,-0.0336,-0.8481,0.1147,0.331,1.578,-1.724,-5.387,-11.987,-12.437,51
0.6384,-0.5303,0.3428,-0.44,19.088852,-84.97023,177.23874,158.62173,-0.1186,-0.8051,0.0532,0.422,1.52,-1.556,-5.387,-11.987,-12.437,51
0.6271,-0.5234,0.3413,-0.465,22.07226,-86.00654,174.48567,155.00891,-0.1791,-0.7641,0.0161,0.566,1.209,-1.236,-12.587,-9.137,-10.337,51
0.6212,-0.5188,0.3392,-0.4794,23.882555,-86.48972,172.9364,152.66287,-0.1816,-0.749,0.0439,0.596,1.033,-1.161,-12.587,-9.137,-10.337,51
0.6183,-0.5166,0.3379,-0.4863,24.75594,-86.721176,172.17886,151.49295,-0.1674,-0.7368,0.0517,0.566,0.998,-1.16,-12.587,-9.137,-10.337,51
0.6152,-0.5146,0.3367,-0.493,25.601112,-86.97665,171.4316,150.38289,-0.1596,-0.7319,0.0605,0.52,0.973,-1.148,-12.587,-9.137,-10.337,51
0.6122,-0.5127,0.3356,-0.4995,26.414047,-87.22298,170.72519,149.31476,-0.1611,-0.7309,0.0668,0.491,0.957,-1.119,-12.587,-9.137,-10.337,51
0.5959,-0.5028,0.33,-0.532,30.484463,-88.47725,167.3302,143.92561,-0.1333,-0.8247,0.0971,0.326,0.734,-0.789,-12.587,-9.137,-10.337,51
0.5936,-0.5013,0.3295,-0.5363,31.014082,-88.63549,166.93997,143.23628,-0.1298,-0.8652,0.104,0.29,0.696,-0.723,-12.587,-9.137,-10.337,51
0.5913,-0.5,0.3292,-0.5402,31.456667,-88.80452,166.584,142.64648,-0.1406,-0.875,0.1191,0.234,0.677,-0.671,-12.587,-9.137,-10.337,51
0.5892,-0.4987,0.3296,-0.5434,31.845434,-88.9501,166.36713,142.25694,-0.1479,-0.9077,0.1284,0.156,0.644,-0.622,-12.587,-9.137,-10.337,51
0.5827,-0.4961,0.3337,-0.5503,32.675507,-89.50324,166.05557,142.0328,-0.142,-1.0483,0.1293,-0.166,0.619,-0.329,-12.587,-9.137,-10.337,51
0.5805,-0.4956,0.3355,-0.5519,32.83282,-89.71445,166.00201,142.15619,-0.1557,-1.123,0.1132,-0.27,0.581,-0.23,-20.387,-9.437,-12.887,51
0.5785,-0.4955,0.3375,-0.5529,32.930523,-89.930885,165.98381,142.41919,-0.1582,-1.1762,0.1054,-0.341,0.495,-0.124,-20.387,-9.437,-12.887,51
0.5755,-0.496,0.3413,-0.5533,32.89709,-90.2925,166.04198,143.15068,-0.1645,-1.2377,0.1557,-0.402,0.26,0.009,-20.387,-9.437,-12.887,51
0.5743,-0.4967,0.3428,-0.5529,32.816628,-90.46536,166.04912,143.55693,-0.143,-1.2465,0.1948,-0.399,0.136,0.017,-20.387,-9.437,-12.887,51
0.5734,-0.4976,0.3441,-0.5522,32.70513,-90.61773,166.06097,143.9755,-0.1264,-1.2177,0.2343,-0.402,0.054,0.033,-20.387,-9.437,-12.887,51
0.5726,-0.4987,0.3454,-0.5513,32.532936,-90.77136,166.07475,144.43434,-0.1088,-1.2104,0.2539,-0.414,-0.015,0.08,-20.387,-9.437,-12.887,51
0.572,-0.4999,0.3468,-0.5499,32.304226,-90.902626,166.13927,144.97772,-0.1069,-1.2197,0.2504,-0.456,-0.072,0.151,-20.387,-9.437,-12.887,51
0.5716,-0.5013,0.3484,-0.5481,32.00131,-91.021095,166.24956,145.61678,-0.1,-1.2607,0.2314,-0.513,-0.128,0.238,-20.387,-9.437,-12.887,51
0.5712,-0.5048,0.3521,-0.5429,31.21927,-91.23183,166.60281,147.23505,-0.0917,-1.3281,0.1806,-0.674,-0.271,0.391,-20.387,-9.437,-12.887,51
0.572,-0.5117,0.3582,-0.5315,29.627167,-91.42368,167.44286,150.31041,-0.0498,-1.3339,0.1665,-0.75,-0.515,0.577,-20.387,-9.437,-12.887,51
