q0,q1,q2,q3,MotionDeg,Roll,Pitch,Yaw,accX,accY,accZ,gyrX,gyrY,gyrZ,magX,magY,magZ,0
0.424,-0.4789,0.4911,-0.5912,0.01619119,-99.02105,163.89133,175.78769,0.1372,-1.0009,0.0502,0.013,0.0,0.002,-8.25,-5.087,29.099,1
0.424,-0.4788,0.4911,-0.5912,0.01619119,-99.01594,163.90387,175.77434,0.1459,-1.0112,0.0532,0.013,0.006,0.002,-8.25,-5.087,29.099,1
0.424,-0.4788,0.4911,-0.5912,0.01619119,-99.01594,163.90387,175.77434,0.1455,-1.0,0.0561,0.002,0.007,-0.004,-8.25,-5.087,29.099,1
0.4229,-0.478,0.4915,-0.5924,0.20072854,-99.08355,163.81851,175.75291,0.1328,-0.997,0.0556,0.009,0.025,-0.025,-7.8,-4.637,29.549,1
0.4228,-0.4782,0.4915,-0.5923,0.13414656,-99.094475,163.78699,175.80646,0.1386,-1.0063,0.0566,0.005,-0.001,0.005,-5.85,-4.037,27.899,1
0.4231,-0.4786,0.4911,-0.592,0.29817262,-99.104774,163.75949,175.79266,0.1323,-0.9941,0.0493,-0.001,-0.078,-0.019,-5.85,-4.037,27.899,1
0.4248,-0.4805,0.4893,-0.5908,0.8405433,-99.14243,163.6588,175.67265,0.1582,-1.0,0.0551,0.011,-0.098,-0.011,-6.15,-5.687,28.649,1
0.4246,-0.4841,0.486,-0.5907,0.96017486,-99.53664,162.89177,175.72665,0.1601,-1.0063,0.0571,-0.007,-0.055,-0.014,-8.25,-5.387,29.849,1
0.4244,-0.485,0.4854,-0.5907,0.94146484,-99.63207,162.69928,175.79175,0.1582,-0.997,0.0527,0.021,-0.077,-0.02,-8.4,-6.737,28.199,1
0.424,-0.4847,0.4857,-0.591,0.8837013,-99.63933,162.69232,175.82123,0.1484,-0.996,0.0458,0.004,0.052,0.001,-7.05,-5.087,29.849,1
0.4239,-0.4845,0.4858,-0.5911,0.7806563,-99.63456,162.70686,175.81255,0.143,-1.0039,0.04,0.011,0.052,0.001,-7.05,-5.087,29.849,1
0.4235,-0.4837,0.4863,-0.5916,0.77405137,-99.61469,162.76755,175.78043,0.1523,-1.0166,0.0625,0.007,0.024,0.013,-7.05,-5.087,29.849,1
0.4236,-0.4835,0.4862,-0.5918,0.7789534,-99.61513,162.78375,175.70064,0.1606,-1.0073,0.0703,0.042,0.025,0.008,-7.05,-5.087,29.849,1
0.4237,-0.4827,0.4857,-0.5928,0.7892032,-99.65214,162.7879,175.38988,0.1606,-1.0092,0.0742,0.098,0.06,-0.038,-7.05,-5.087,29.849,1
0.4236,-0.4823,0.4855,-0.5933,0.835197,-99.676834,162.77518,175.26465,0.1577,-1.0063,0.0869,0.106,0.084,-0.054,-7.05,-5.087,29.849,1
0.4232,-0.4814,0.4852,-0.5946,0.8561696,-99.7434,162.72672,175.0107,0.1489,-0.999,0.0917,0.082,0.137,-0.058,-7.05,-5.087,29.849,1
0.4226,-0.4804,0.4852,-0.5958,0.9111817,-99.79377,162.69878,174.82903,0.1474,-0.9956,0.08,0.062,0.154,-0.035,-7.05,-5.087,29.849,1
0.4221,-0.4796,0.4854,-0.5966,1.0044867,-99.814705,162.70206,174.73442,0.1347,-0.9936,0.0771,0.029,0.104,-0.034,-7.05,-5.087,29.849,1
0.4223,-0.4798,0.4847,-0.5969,1.0456865,-99.87059,162.62212,174.5938,0.1269,-1.0283,0.0834,0.042,-0.119,-0.039,-7.65,-5.237,28.649,1
0.4228,-0.4802,0.4841,-0.5968,1.1020021,-99.89023,162.58952,174.49474,0.1347,-1.0283,0.0942,0.057,-0.16,-0.041,-7.65,-5.237,28.649,1
0.4233,-0.4805,0.4834,-0.5967,1.200359,-99.91056,162.56049,174.36752,0.1372,-1.0239,0.1137,0.095,-0.158,-0.04,-7.65,-5.237,28.649,1
0.4238,-0.4807,0.4825,-0.5969,1.3475541,-99.95321,162.5075,174.16216,0.1489,-1.0092,0.1123,0.15,-0.147,-0.069,-7.65,-5.237,28.649,1
0.4255,-0.4804,0.4778,-0.5997,1.8985763,-100.248116,162.17473,172.83247,0.1757,-1.0263,0.1215,0.089,0.041,-0.051,-7.65,-5.237,28.649,1
0.4246,-0.4796,0.4767,-0.6019,2.139619,-100.44204,161.93202,172.43544,0.1552,-1.0131,0.1157,0.092,0.136,-0.136,-7.65,-5.237,28.649,1
0.4241,-0.4793,0.4764,-0.6027,2.2414904,-100.51778,161.8327,172.33109,0.1411,-0.998,0.1166,0.078,0.133,-0.151,-7.65,-5.237,28.649,1
0.4236,-0.4792,0.4759,-0.6035,2.3628633,-100.61565,161.6916,172.22287,0.1274,-0.9594,0.1118,0.094,0.098,-0.187,-7.65,-5.237,28.649,1
0.4232,-0.4793,0.4752,-0.6043,2.4959006,-100.72884,161.52148,172.09515,0.1333,-0.9355,0.124,0.095,0.049,-0.219,-7.65,-5.237,28.649,1
0.4226,-0.4796,0.4744,-0.6051,6.1477885,-100.8719,161.2934,172.00923,0.143,-0.9257,0.1318,0.076,0.012,-0.248,-7.65,-5.237,28.649,1
0.3879,-0.4734,0.4794,-0.6288,6.155,-103.75338,156.86717,174.89183,0.0454,-0.9125,0.0854,-0.005,-0.307,-0.4,-9.9,-5.237,28.199,1
0.3883,-0.4807,0.4758,-0.6258,3.165524,-104.15159,155.84285,175.66312,0.0268,-1.018,0.0322,-0.089,-0.392,-0.166,-9.9,-5.237,28.199,1
0.4211,-0.4912,0.4687,-0.6013,2.91735,-101.72445,159.38834,173.37387,0.2373,-0.9531,0.143,0.014,0.185,0.369,-11.85,-7.037,29.849,1
0.4212,-0.4892,0.4704,-0.6015,1.9001096,-101.5232,159.78494,173.33008,0.2216,-0.9418,0.1279,-0.024,0.397,0.379,-11.85,-7.037,29.849,1
0.4196,-0.4759,0.4821,-0.6041,1.891655,-100.37668,162.10004,173.26135,0.1064,-0.9189,0.0454,-0.004,0.625,0.442,-11.85,-7.037,29.849,1
0.4021,-0.4183,0.5272,-0.6206,9.63231,-96.70138,170.04813,172.44783,-0.0517,-1.0781,0.02,-0.077,1.058,0.183,-1.2,-5.837,26.999,1
0.4001,-0.4152,0.5299,-0.6217,10.087007,-96.563805,170.35455,172.54367,-0.0551,-1.082,0.0024,-0.111,0.944,0.158,-1.2,-5.837,26.999,1
0.3982,-0.4126,0.5324,-0.6225,10.469332,-96.43972,170.6111,172.69617,-0.0649,-1.0815,-0.0019,-0.14,0.798,0.128,-1.2,-5.837,26.999,1
0.3832,-0.4067,0.5417,-0.6278,11.858049,-96.74279,169.91222,174.72974,-0.0595,-1.247,-0.0083,0.022,0.194,-0.468,-1.2,-5.837,26.999,1
0.3815,-0.408,0.5406,-0.6289,11.687789,-97.03666,169.36642,174.93568,-0.0605,-1.2807,-0.0292,0.026,0.017,-0.555,-1.2,-5.837,26.999,1
0.3799,-0.4156,0.5352,-0.6295,10.876269,-97.87232,167.69,175.55493,0.0766,-1.3969,-0.0029,0.029,-0.511,-0.469,-1.2,-5.837,26.999,1
0.3498,-0.4667,0.5052,-0.636,9.914996,-104.11132,154.31656,184.03589,0.4013,-0.8261,0.0502,0.154,-0.66,0.22,2.849,-6.437,28.649,1
0.352,-0.4664,0.5043,-0.6357,14.548058,-104.04959,154.60356,183.46469,0.4028,-0.871,0.0678,0.319,-0.288,0.328,2.849,-6.437,28.649,1
0.3162,-0.4546,0.5022,-0.664,17.263775,-107.06965,150.3698,185.96301,0.1743,-0.956,0.0903,-0.54,0.627,-1.182,-4.95,-8.087,32.099,1
0.2887,-0.4788,0.4875,-0.6705,22.60499,-110.36424,142.6171,194.15025,0.2734,-0.6943,0.0874,-0.042,-0.191,-1.116,-4.95,-8.087,32.099,1
0.2343,-0.48,0.4807,-0.6953,25.51373,-113.31418,135.34038,206.68613,0.249,-1.1665,0.1933,-0.415,1.167,-0.456,-11.4,-13.637,-27.887,1
0.2236,-0.4761,0.4842,-0.699,26.738287,-113.09096,134.74016,209.25221,0.2148,-1.2661,0.1523,-0.51,1.035,-0.495,-11.4,-13.637,-27.887,1
0.2141,-0.473,0.4869,-0.7022,28.199263,-112.880394,134.15579,211.56516,0.1738,-1.2856,0.1567,-0.4,0.878,-0.462,-11.4,-13.637,-27.887,1
0.2031,-0.4722,0.4902,-0.7038,28.623503,-112.40441,133.09677,214.911,0.0844,-1.2275,0.1386,-0.501,0.231,-0.386,-11.4,-13.637,-27.887,1
0.2011,-0.4739,0.4911,-0.7025,28.568027,-112.15862,132.64175,215.98363,0.0703,-1.2685,0.0976,-0.545,-0.124,-0.322,-11.4,-13.637,-27.887,1
0.2004,-0.4769,0.492,-0.7001,28.279585,-111.8613,132.14868,216.9649,0.0732,-1.3203,0.0493,-0.558,-0.564,-0.226,-11.4,-13.637,-27.887,1
0.2091,-0.4947,0.4908,-0.686,23.443972,-111.184425,130.56732,218.48808,0.3208,-1.4423,-0.0468,-0.208,-2.101,0.052,-11.4,-13.637,-27.887,1
0.2393,-0.5245,0.4759,-0.6641,22.76147,-111.990814,129.6078,215.44975,0.4589,-0.7954,0.0253,0.546,-1.841,0.166,-13.5,-15.887,-23.837,1
0.246,-0.5292,0.4724,-0.6604,22.00269,-112.2429,129.6812,214.29778,0.4145,-0.7416,0.0361,0.618,-1.888,0.257,-13.5,-15.887,-23.837,1
0.2536,-0.5338,0.4689,-0.6563,21.143139,-112.46097,129.8902,212.8825,0.3916,-0.7182,0.0454,0.664,-1.988,0.426,-13.5,-15.887,-23.837,1
0.2622,-0.5382,0.4658,-0.6515,20.212732,-112.56951,130.28256,211.23581,0.374,-0.7246,0.0224,0.68,-2.126,0.633,-13.5,-15.887,-23.837,1
0.2717,-0.5425,0.4628,-0.6461,17.087694,-112.59601,130.82944,209.38773,0.4008,-0.7373,-0.0302,0.707,-2.256,0.841,-13.5,-15.887,-23.837,1
0.3073,-0.5551,0.4521,-0.6268,16.138752,-112.30043,133.57132,202.09564,0.4653,-0.7607,-0.2089,1.172,-2.803,1.253,-13.5,-15.887,-23.837,1
0.3353,-0.5623,0.4411,-0.6137,3.81217,-111.978195,136.08218,195.67467,0.5009,-0.8046,-0.2026,1.665,-2.805,1.343,-13.5,-15.887,-23.837,1
0.4376,-0.4561,0.4803,-0.608,4.2150292,-98.341034,166.35661,167.29633,0.1376,-0.7807,0.0205,-0.102,1.389,1.335,-8.55,-22.187,32.399,1
0.4382,-0.4495,0.4865,-0.6074,4.7640224,-97.57404,167.82155,167.35991,0.1176,-0.789,0.0166,-0.171,1.262,1.357,-8.55,-22.187,32.399,1
0.4394,-0.4434,0.4926,-0.6062,5.3914075,-96.76665,169.3311,167.44139,0.1054,-0.8164,0.0004,-0.222,1.091,1.435,-8.55,-22.187,32.399,1
0.4414,-0.4378,0.4984,-0.604,6.0748115,-95.894905,170.92023,167.5348,0.081,-0.8422,-0.0107,-0.27,0.822,1.567,-8.55,-22.187,32.399,1
0.4442,-0.4327,0.504,-0.601,6.790121,-94.96415,172.58807,167.63681,0.0419,-0.8481,-0.0307,-0.282,0.592,1.651,-8.55,-22.187,32.399,1
0.4475,-0.428,0.5089,-0.5979,7.509599,-94.0519,174.21751,167.634,0.0317,-0.8544,-0.0537,-0.208,0.409,1.622,-8.55,-22.187,32.399,1
0.4513,-0.4236,0.5128,-0.5947,8.235672,-93.16795,175.7894,167.48517,0.0312,-0.8769,-0.0742,-0.068,0.222,1.575,-8.55,-22.187,32.399,1
0.4557,-0.4194,0.5158,-0.5918,8.907846,-92.315285,177.29929,167.14711,0.0234,-0.8925,-0.0844,0.088,0.07,1.514,-8.55,-22.187,32.399,1
0.4827,-0.382,0.5375,-0.5762,14.561256,-86.31339,187.96646,164.11678,0.0878,-1.1997,0.0766,-0.03,1.092,0.68,1.649,-26.837,28.049,1
0.4777,-0.3747,0.5442,-0.5789,14.968445,-86.04608,188.74037,164.22807,0.0317,-1.1645,0.0952,-0.079,1.13,0.089,1.649,-26.837,28.049,1
0.4745,-0.3725,0.5463,-0.5809,14.764592,-86.141914,188.70781,164.31046,0.0292,-1.142,0.0966,-0.052,0.98,-0.193,1.649,-26.837,28.049,1
0.4615,-0.372,0.5509,-0.5872,14.712601,-87.122536,187.34506,165.42265,0.1547,-1.3061,0.1054,-0.3,0.535,-0.401,1.649,-26.837,28.049,1
0.4581,-0.3716,0.5525,-0.5888,14.815663,-87.33719,187.05386,165.74312,0.1684,-1.3652,0.1298,-0.223,0.724,-0.404,1.649,-26.837,28.049,1
0.453,-0.37,0.5542,-0.592,15.025135,-87.67615,186.59438,165.9529,0.1381,-1.3247,0.1713,-0.094,1.172,-0.606,1.649,-26.837,28.049,1
0.4458,-0.3675,0.5562,-0.5972,15.366331,-88.198006,185.87169,166.12402,0.0668,-1.2299,0.1865,0.05,1.71,-0.927,1.649,-26.837,28.049,1
0.4267,-0.3617,0.5605,-0.6105,16.191397,-89.6478,183.78833,166.71994,-0.0625,-0.9985,0.1557,-0.028,2.207,-1.404,1.649,-26.837,28.049,1
0.3665,-0.383,0.5687,-0.6288,15.55824,-94.79856,172.99928,176.83572,-0.0595,-1.0629,0.1474,-0.482,-0.388,-1.141,1.349,-28.187,-29.687,1
0.3647,-0.3972,0.5604,-0.6285,12.884886,-96.05868,170.20103,178.30246,-0.0488,-1.0322,0.0419,0.075,-1.366,-1.405,1.349,-28.187,-29.687,1
0.3644,-0.4122,0.5457,-0.6319,12.362526,-97.96273,166.78899,178.58241,0.1308,-0.8334,0.0678,0.703,-1.255,-1.698,1.349,-28.187,-29.687,1
0.3625,-0.4183,0.5385,-0.6352,12.16958,-99.03114,164.98337,178.63889,0.2036,-0.7304,0.0893,0.689,-0.867,-1.806,1.349,-28.187,-29.687,1
0.346,-0.4328,0.5255,-0.6455,13.306592,-102.009026,159.38521,181.18488,0.2954,-0.6684,0.1416,-0.193,0.297,-1.9,1.349,-28.187,-29.687,1
0.3383,-0.4366,0.5234,-0.6487,16.40149,-102.86488,157.56454,182.67294,0.3095,-0.6743,0.1328,-0.341,0.476,-1.841,1.349,-28.187,-29.687,1
0.292,-0.4693,0.4916,-0.6728,18.678936,-109.80663,144.49863,191.9612,0.289,-0.9018,0.1152,0.149,0.599,-1.471,-15.0,-31.937,-22.037,1
0.2725,-0.4678,0.4872,-0.6851,21.486172,-111.45306,141.89732,195.07114,0.2529,-1.0297,0.1674,-0.079,1.171,-1.233,-15.0,-31.937,-22.037,1
0.2572,-0.4652,0.4862,-0.6934,23.55938,-112.311165,140.28821,197.97035,0.206,-1.123,0.2055,-0.227,1.368,-1.235,-15.0,-31.937,-22.037,1
0.2407,-0.4632,0.4865,-0.7004,25.463633,-112.87541,138.58809,201.80971,0.1074,-1.2182,0.163,-0.458,1.242,-1.26,-15.0,-31.937,-22.037,1
0.2329,-0.4637,0.4866,-0.7027,26.831753,-113.044914,137.60979,204.04482,0.0634,-1.2568,0.122,-0.569,0.943,-1.282,-15.0,-31.937,-22.037,1
0.2198,-0.4682,0.4862,-0.7042,28.630396,-113.15331,135.46436,208.70804,0.062,-1.2641,0.0761,-0.635,0.232,-1.197,-15.0,-31.937,-22.037,1
0.1993,-0.4928,0.4835,-0.6953,28.031967,-112.346,129.58194,220.05634,0.0869,-1.0981,-0.0732,-0.406,-1.16,-0.446,-15.0,-31.937,-22.037,1
0.2021,-0.5002,0.4821,-0.6902,27.289095,-112.19356,128.80087,220.81131,0.1601,-1.122,-0.1245,-0.321,-1.906,-0.268,-15.0,-31.937,-22.037,1
0.2074,-0.5089,0.4801,-0.6836,25.457764,-112.08375,128.10712,221.1039,0.2919,-1.1303,-0.1494,-0.193,-2.541,-0.05,-23.55,30.149,-15.437,1
0.2225,-0.5262,0.475,-0.6692,16.194113,-112.05011,127.28019,220.33374,0.6,-1.0434,-0.1225,0.166,-2.801,0.33,-23.55,30.149,-15.437,1
0.3115,-0.5459,0.4554,-0.6304,12.338027,-111.90863,135.5002,199.47224,0.5151,-0.9975,-0.1303,1.103,-1.408,1.824,-23.55,30.149,-15.437,1
0.3698,-0.5159,0.4622,-0.6191,8.201486,-107.373245,148.13158,183.1081,0.392,-0.7709,0.0883,1.053,0.697,1.922,-23.55,30.149,-15.437,1
0.4348,-0.4196,0.5294,-0.5953,8.911888,-93.176056,175.8678,171.0572,-0.0366,-1.0141,-0.06,0.498,0.204,1.544,-27.75,32.249,-11.687,1
0.4395,-0.4145,0.5317,-0.5933,9.619092,-92.35638,177.42747,170.30287,0.0175,-1.0024,-0.0581,0.423,0.153,1.526,-27.75,32.249,-11.687,1
0.4438,-0.4099,0.5345,-0.5909,10.330213,-91.536934,178.95114,169.78242,0.0878,-1.0229,-0.0439,0.239,0.139,1.509,-27.75,32.249,-11.687,1
0.447,-0.4055,0.5379,-0.5884,11.0893135,-90.759796,180.38722,169.51157,0.1235,-1.0512,-0.038,0.031,0.299,1.446,-27.75,32.249,-11.687,1
0.4492,-0.4008,0.542,-0.5862,11.85755,-90.00881,181.78938,169.37314,0.1289,-1.1132,-0.0493,-0.121,0.517,1.349,-27.75,32.249,-11.687,1
0.4516,-0.3918,0.551,-0.582,13.202704,-88.62456,184.3909,169.43,0.122,-1.2114,-0.0673,-0.298,0.667,1.151,-27.75,32.249,-11.687,1
0.4519,-0.388,0.5551,-0.5805,13.698433,-88.084015,185.41978,169.52866,0.1147,-1.2612,-0.0415,-0.286,0.678,0.925,-27.75,32.249,-11.687,1
0.4514,-0.3849,0.5585,-0.5796,14.0463705,-87.70441,186.1555,169.65866,0.0981,-1.2739,-0.041,-0.262,0.68,0.659,-14.85,-23.087,-20.387,1
0.4507,-0.3826,0.5609,-0.5794,14.219147,-87.47673,186.61063,169.72794,0.0634,-1.2993,-0.0458,-0.153,0.562,0.398,-14.85,-23.087,-20.387,1
0.4501,-0.3813,0.562,-0.5796,14.181813,-87.3926,186.7916,169.7302,0.0224,-1.3041,-0.0468,-0.019,0.349,0.14,-14.85,-23.087,-20.387,1
0.4496,-0.3812,0.5616,-0.5804,13.973612,-87.48633,186.63562,169.65126,-0.0263,-1.2714,-0.0195,0.094,0.091,-0.154,-14.85,-23.087,-20.387,1
0.449,-0.3822,0.5602,-0.5816,13.705616,-87.725815,186.20096,169.57297,-0.0112,-1.2348,0.0312,0.172,-0.077,-0.405,-14.85,-23.087,-20.387,1
0.4482,-0.3836,0.5585,-0.5829,12.86465,-88.02207,185.65852,169.52327,0.0361,-1.2036,0.0815,0.157,-0.132,-0.524,-14.85,-23.087,-20.387,1
0.4414,-0.3883,0.5539,-0.5894,12.885477,-89.33678,183.30171,169.72937,0.1943,-1.1059,0.2011,0.071,0.674,-0.693,-14.85,-23.087,-20.387,1
0.4184,-0.3875,0.5576,-0.6031,13.177871,-91.28924,179.91463,171.46417,0.2104,-0.9492,0.1274,-0.542,1.497,-1.244,-14.85,-23.087,-20.387,1
0.3995,-0.3949,0.5608,-0.608,12.675434,-92.84241,176.52399,174.82233,0.1723,-1.0869,0.1259,-0.529,0.117,-0.983,-14.85,-23.087,-20.387,1
0.3967,-0.3985,0.5598,-0.6084,12.42285,-93.25641,175.57626,175.55438,0.184,-1.1162,0.187,-0.365,-0.175,-0.9,-14.85,-23.087,-20.387,1
0.3831,-0.4095,0.5558,-0.6136,11.798959,-95.06479,171.61836,178.12164,0.0209,-1.0078,0.101,-0.152,0.118,-1.084,-15.6,-17.237,-19.337,1
0.3801,-0.4136,0.553,-0.6152,11.268999,-95.69036,170.32639,178.69792,-0.0009,-0.9453,0.0634,-0.054,-0.258,-1.255,-15.6,-17.237,-19.337,1
0.3777,-0.4193,0.5488,-0.6166,10.1678,-96.43936,168.80164,179.28278,0.0405,-0.875,0.0625,0.053,-0.666,-1.435,-15.6,-17.237,-19.337,1
0.3726,-0.4322,0.5382,-0.6201,10.50359,-98.21259,165.30724,180.4174,0.2456,-0.7485,0.1376,0.157,-0.733,-1.704,-15.6,-17.237,-19.337,1
0.3499,-0.45,0.5242,-0.6326,11.355223,-101.795715,158.0704,184.19366,0.2968,-0.644,0.1098,-0.185,0.281,-1.744,-15.6,-17.237,-19.337,1
0.3442,-0.4541,0.5212,-0.6352,11.682776,-102.58782,156.39879,185.29547,0.2773,-0.6542,0.1083,-0.166,0.101,-1.661,-15.6,-17.237,-19.337,1
0.3395,-0.4585,0.5179,-0.6373,11.922432,-103.33274,154.83649,186.29689,0.2646,-0.6752,0.0854,-0.077,-0.105,-1.546,-15.6,-17.237,-19.337,1
0.336,-0.4627,0.5141,-0.6391,12.099208,-104.03835,153.45552,187.02005,0.2495,-0.7148,0.0683,0.057,-0.266,-1.397,-15.6,-17.237,-19.337,1
0.3336,-0.4665,0.51,-0.6409,14.717717,-104.70933,152.27206,187.42891,0.246,-0.7587,0.0356,0.235,-0.357,-1.236,-15.6,-17.237,-19.337,1
0.3186,-0.481,0.4767,-0.6631,16.631468,-109.901276,145.68837,186.27808,0.2773,-0.9013,0.0908,0.417,0.099,-1.227,-28.5,-17.987,-13.487,1
0.2996,-0.4814,0.4696,-0.6766,18.440163,-112.07385,142.65851,188.60944,0.3305,-1.2011,0.2416,-0.078,1.206,-1.005,-28.5,-17.987,-13.487,1
0.2842,-0.476,0.4717,-0.6855,20.450428,-112.79833,141.51208,191.19032,0.2133,-1.25,0.1518,-0.409,1.708,-0.982,-28.5,-17.987,-13.487,1
0.2686,-0.472,0.4753,-0.6921,22.132324,-113.195854,140.29327,194.69897,0.0927,-1.2563,0.0429,-0.616,1.339,-0.913,-28.5,-17.987,-13.487,1
0.2554,-0.4712,0.4782,-0.6956,23.48178,-113.3659,138.938,198.42639,0.0703,-1.1958,0.0493,-0.682,0.87,-0.841,-28.5,-17.987,-13.487,1
0.2429,-0.4709,0.4818,-0.6978,25.92444,-113.265724,137.63388,202.30089,0.0952,-1.1313,0.1181,-0.757,0.867,-0.735,-28.5,-17.987,-13.487,1
0.2396,-0.4995,0.4836,-0.6775,22.703356,-111.97541,133.37425,210.43332,0.352,-0.9785,-0.1069,0.257,-2.41,-0.042,-28.2,-14.387,-12.137,1
0.2602,-0.5245,0.4713,-0.6595,20.340504,-112.38501,132.09824,209.2372,0.4584,-0.8247,-0.082,0.324,-2.787,0.075,-28.2,-14.387,-12.137,1
0.2779,-0.5398,0.462,-0.6463,16.985725,-112.64396,131.97585,206.99872,0.5483,-0.9199,0.0122,0.643,-2.852,0.443,-28.2,-14.387,-12.137,1
0.309,-0.5526,0.4491,-0.6303,16.191328,-112.727295,133.92749,200.37772,0.602,-0.8857,0.0195,1.07,-2.172,1.003,-28.2,-14.387,-12.137,1
0.3399,-0.557,0.44,-0.6168,13.965371,-111.93188,137.27383,193.0763,0.5581,-0.8222,-0.0712,1.075,-1.734,1.339,-28.2,-14.387,-12.137,1
0.3873,-0.5323,0.4461,-0.6061,8.008796,-107.56214,147.69276,180.89189,0.3642,-0.7539,0.0405,0.766,1.069,1.784,-28.2,-14.387,-12.137,1
0.3913,-0.5232,0.4513,-0.6077,6.319012,-106.63564,149.71893,179.46272,0.2973,-0.7319,0.0131,0.662,1.361,1.782,-28.2,-14.387,-12.137,1
0.4417,-0.4294,0.5221,-0.5897,7.663604,-93.37237,175.23083,171.12836,0.2158,-1.1723,-0.1274,-0.321,0.351,1.361,-10.8,-10.037,-23.687,1
0.4442,-0.4254,0.5255,-0.5877,8.253602,-92.69148,176.50014,170.94077,0.1845,-1.1918,-0.1162,-0.049,0.334,1.229,-10.8,-10.037,-23.687,1
0.4465,-0.4214,0.5278,-0.5867,9.40362,-92.13907,177.56073,170.5397,0.1298,-1.1733,-0.0913,0.181,0.368,0.993,-10.8,-10.037,-23.687,1
0.4507,-0.4123,0.5306,-0.5874,9.57715,-91.24041,179.36375,169.16243,0.0781,-1.1542,-0.0551,0.276,0.295,0.363,-10.8,-10.037,-23.687,1
0.451,-0.4107,0.5309,-0.5881,9.659176,-91.152016,179.56255,168.8906,0.0966,-1.1567,-0.0336,0.221,0.252,0.158,14.999,-11.687,-32.237,1
0.4509,-0.4097,0.5308,-0.5889,9.729499,-91.15043,179.597,168.68167,0.1206,-1.1425,0.0039,0.178,0.197,0.024,14.999,-11.687,-32.237,1
0.4485,-0.4082,0.5345,-0.5885,10.116872,-91.003784,179.89484,169.26085,0.2993,-1.2739,0.2236,-0.366,0.528,-0.004,14.999,-11.687,-32.237,1
0.4437,-0.4065,0.5375,-0.5905,9.456567,-91.16707,179.67453,169.76332,0.29,-1.2041,0.2954,-0.389,1.202,-0.317,14.999,-11.687,-32.237,1
0.3865,-0.4342,0.5487,-0.6007,9.219597,-95.66832,169.084,181.54532,0.187,-0.892,0.1381,0.378,-0.509,-1.127,14.249,-16.337,-25.637,1
0.3837,-0.4367,0.545,-0.6041,9.307962,-96.3863,167.80894,181.60129,0.2407,-0.7812,0.0996,0.405,0.013,-1.246,14.249,-16.337,-25.637,1
0.3724,-0.4398,0.5402,-0.6131,13.675769,-97.957886,164.8411,182.46489,0.2543,-0.6376,0.0258,0.066,0.791,-1.513,14.249,-16.337,-25.637,1
0.3207,-0.5078,0.4634,-0.6514,15.36887,-111.117676,141.87389,189.50752,0.4516,-0.9653,0.1372,0.303,-0.08,-1.607,14.249,-16.337,-25.637,1
0.2994,-0.5103,0.4543,-0.6659,18.740788,-113.624374,138.15604,192.51468,0.4008,-1.1123,0.2031,-0.138,1.293,-1.659,2.249,-19.637,-23.687,1
0.2898,-0.509,0.454,-0.6713,19.961588,-114.23561,137.08778,194.35922,0.3413,-1.1884,0.1938,-0.395,1.638,-1.557,2.249,-19.637,-23.687,1
0.2334,-0.5607,0.443,-0.6593,25.318438,-115.28862,122.87606,221.3074,0.6962,-0.9023,-0.0351,0.351,-2.892,-0.009,2.249,-19.637,-23.687,1
0.2524,-0.5819,0.4287,-0.6432,24.44165,-116.33259,121.73586,218.78436,0.6298,-0.7597,-0.0268,0.634,-2.25,0.054,-3.75,-26.087,-18.137,1
0.2597,-0.587,0.4245,-0.6384,23.936735,-116.64264,121.7784,217.21973,0.5903,-0.7998,-0.0063,0.726,-2.145,0.311,-3.75,-26.087,-18.137,1
0.2681,-0.5907,0.4212,-0.6337,23.309137,-116.83072,122.19209,215.12872,0.5751,-0.8334,-0.0161,0.839,-1.982,0.631,-3.75,-26.087,-18.137,1
0.2875,-0.5947,0.4165,-0.6245,21.7857,-116.83138,123.937546,209.79929,0.5361,-0.8374,-0.1162,1.049,-1.75,1.218,-3.75,-26.087,-18.137,1
0.2985,-0.5957,0.4146,-0.6196,20.987877,-116.640686,125.17052,206.73715,0.5317,-0.8305,-0.1625,1.143,-1.796,1.418,-3.75,-26.087,-18.137,1
0.3105,-0.5969,0.4127,-0.6139,20.194809,-116.30787,126.550385,203.60063,0.539,-0.8666,-0.2246,1.221,-1.954,1.576,-3.75,-26.087,-18.137,1
0.3234,-0.5978,0.4107,-0.6076,14.027231,-115.83491,128.13055,200.3395,0.5649,-0.8999,-0.2084,1.291,-2.099,1.747,-3.75,-26.087,-18.137,1
0.3923,-0.5687,0.4143,-0.5923,12.451046,-110.408195,141.89395,181.14507,0.5195,-0.8125,0.0517,1.417,0.925,2.376,-3.75,-26.087,-18.137,1
0.4115,-0.532,0.437,-0.597,6.9531865,-106.155266,150.63,175.80957,0.4316,-0.7382,0.0327,0.712,2.075,2.69,-3.75,-26.087,-18.137,1
0.4158,-0.5189,0.4468,-0.5984,5.1595273,-104.673416,153.56075,174.78337,0.3896,-0.7143,0.02,0.509,2.211,2.673,-3.75,-26.087,-18.137,1
0.4256,-0.474,0.4841,-0.5996,7.2417316,-99.530594,163.54439,172.91373,0.1875,-0.7495,0.0175,-0.072,1.734,2.088,-1.05,27.449,-22.037,1
0.4391,-0.417,0.5302,-0.5934,9.7841835,-92.60905,176.92279,170.47868,-0.0917,-0.9516,-0.059,-0.036,1.237,2.119,-1.05,27.449,-22.037,1
0.442,-0.409,0.5366,-0.5909,10.818557,-91.48688,179.05284,170.13535,-0.1245,-0.9399,-0.0761,-0.013,1.031,1.965,-1.05,27.449,-22.037,1
0.4453,-0.4023,0.5418,-0.5883,11.608038,-90.47159,180.96625,169.77496,-0.1455,-0.9355,-0.0659,0.014,0.695,1.758,-1.05,27.449,-22.037,1
0.449,-0.3975,0.5455,-0.5853,12.210807,-89.59577,182.58392,169.47813,-0.1347,-0.9638,-0.0571,0.035,0.267,1.541,-1.05,27.449,-22.037,1
0.4532,-0.3942,0.5479,-0.5821,12.706851,-88.83093,183.96625,169.19243,-0.0937,-1.0229,-0.0346,0.038,-0.125,1.367,-1.05,27.449,-22.037,1
0.4577,-0.3919,0.5495,-0.5786,13.15735,-88.12867,185.20793,168.94891,-0.0507,-1.081,-0.0175,0.056,-0.371,1.246,-1.05,27.449,-22.037,1
0.4622,-0.3899,0.5505,-0.5754,14.0725155,-87.49124,186.32416,168.65742,-0.0131,-1.164,-0.0258,0.063,-0.443,1.148,-1.05,27.449,-22.037,1
0.4709,-0.3864,0.5526,-0.5686,14.464567,-86.23417,188.50165,168.25223,0.02,-1.3134,-0.0083,-0.049,-0.426,1.106,-1.05,27.449,-22.037,1
0.4739,-0.3849,0.5538,-0.5659,14.734646,-85.73861,189.3662,168.1743,0.0131,-1.268,-0.0234,-0.059,-0.265,0.886,-1.05,27.449,-22.037,1
0.4763,-0.3838,0.5543,-0.5643,14.788628,-85.4032,189.94316,168.02155,0.0019,-1.2011,-0.0327,0.055,-0.235,0.595,-1.05,27.449,-22.037,1
0.4791,-0.4005,0.5388,-0.5653,12.483834,-87.04535,186.61569,167.91101,0.2924,-1.3115,0.1669,-0.227,0.143,-0.455,-3.3,18.599,-17.687,1
0.4755,-0.4001,0.5402,-0.5673,12.387054,-87.299416,186.24452,168.17905,0.2963,-1.3422,0.185,-0.206,0.735,-0.458,-3.3,18.599,-17.687,1
0.4623,-0.3946,0.5448,-0.5776,12.473689,-88.176895,185.00888,168.35805,0.249,-1.0698,0.2421,0.102,2.026,-0.917,-3.3,18.599,-17.687,1
0.3616,-0.4455,0.5216,-0.6312,9.869159,-101.18837,160.15073,181.17508,0.1875,-0.6933,-0.0336,0.214,-0.821,-1.993,-11.4,18.599,-11.837,1
0.3395,-0.4781,0.4952,-0.6409,11.935674,-106.07297,150.53947,186.08794,0.4204,-0.7695,0.0507,0.031,-0.284,-1.824,-11.4,18.599,-11.837,1
0.3133,-0.4863,0.4821,-0.6579,16.129585,-109.50705,144.71078,189.79472,0.4414,-0.852,0.101,0.004,1.308,-1.512,-11.4,18.599,-11.837,1
0.2941,-0.4801,0.4821,-0.6712,19.07122,-110.78392,142.85068,192.19081,0.3979,-0.9721,0.165,-0.174,2.267,-1.382,-11.4,18.599,-11.837,1
0.2581,-0.4609,0.4887,-0.6942,29.665785,-112.02943,141.07819,197.1541,0.1572,-1.0957,0.1318,-0.476,3.14,-1.285,-19.05,13.649,-8.537,1
0.2016,-0.4448,0.4961,-0.7178,30.545328,-112.715034,136.94702,209.67175,-0.0917,-1.2485,0.0708,-0.611,1.279,-1.432,-19.05,13.649,-8.537,1
0.1873,-0.4472,0.4953,-0.7207,31.697838,-112.68651,135.02643,214.29245,-0.1064,-1.1923,0.0302,-0.448,0.485,-1.232,-19.05,13.649,-8.537,1
0.1798,-0.4526,0.4932,-0.7207,32.00073,-112.65047,133.41818,217.53564,-0.0454,-1.0932,0.0551,-0.24,-0.234,-0.992,-19.05,13.649,-8.537,1
0.1829,-0.4869,0.4837,-0.7038,29.671188,-112.31923,128.64865,223.53677,0.2182,-1.208,-0.0883,-0.155,-2.603,-0.529,-19.05,13.649,-8.537,1
0.2059,-0.5188,0.4736,-0.6811,26.595211,-112.52234,126.38306,223.15335,0.6562,-1.1459,-0.0869,0.255,-3.196,0.242,-19.05,13.649,-8.537,1
0.347,-0.5194,0.4636,-0.6283,10.046558,-109.03538,144.3865,187.77039,0.3544,-0.9155,0.0166,0.915,0.61,2.423,-31.05,8.549,-1.787,1
0.3542,-0.5092,0.4688,-0.6287,8.982031,-107.932526,147.03229,185.31612,0.3076,-0.893,0.0224,0.876,1.057,2.458,-31.05,8.549,-1.787,1
0.3605,-0.4979,0.4747,-0.6298,8.19266,-106.78652,149.72734,183.00204,0.2529,-0.8598,0.0209,0.823,1.396,2.443,-31.05,8.549,-1.787,1
0.3659,-0.4864,0.4809,-0.631,7.6866827,-105.639084,152.34424,180.94987,0.1918,-0.8339,0.0004,0.739,1.56,2.391,-31.05,8.549,-1.787,1
0.3709,-0.4751,0.487,-0.6319,7.261957,-104.495,154.88458,179.08325,0.1293,-0.8208,-0.0332,0.642,1.531,2.31,-31.05,8.549,-1.787,1
0.3929,-0.4408,0.5072,-0.6276,7.2729225,-100.02191,163.93535,173.60083,0.0151,-0.8891,-0.0732,0.278,0.363,2.127,27.136,15.749,1.813,1
0.3995,-0.4349,0.5114,-0.6241,7.381379,-98.864746,166.06256,172.68486,0.0288,-0.9204,-0.0727,0.241,0.095,2.098,27.136,15.749,1.813,1
0.4062,-0.4298,0.5151,-0.6203,7.5572844,-97.75006,168.08492,171.87161,0.0239,-0.9199,-0.0585,0.199,-0.085,2.017,27.136,15.749,1.813,1
0.4127,-0.4255,0.5183,-0.6163,7.7915363,-96.70347,169.95833,171.19104,0.0122,-0.9384,-0.0502,0.164,-0.204,1.888,27.136,15.749,1.813,1
0.4191,-0.4218,0.5211,-0.6121,8.307203,-95.703476,171.72873,170.60881,0.0126,-0.9575,-0.0546,0.142,-0.358,1.791,27.136,15.749,1.813,1
0.4527,-0.4125,0.5285,-0.5877,9.753127,-91.24735,179.33904,168.66771,0.1381,-1.0,-0.0312,-0.015,-0.85,1.462,27.136,15.749,1.813,1
0.4584,-0.4118,0.5295,-0.5828,10.162104,-90.51014,180.56812,168.56555,0.1674,-1.0092,-0.0512,-0.035,-0.862,1.388,27.136,15.749,1.813,1
0.4641,-0.4114,0.53,-0.5781,10.5704365,-89.82711,181.69765,168.43587,0.1694,-1.0375,-0.0498,0.001,-0.913,1.291,27.136,15.749,1.813,1
0.4699,-0.4113,0.5299,-0.5736,11.0668745,-89.19615,182.7252,168.25618,0.2016,-1.0761,-0.0566,0.082,-1.015,1.221,27.136,15.749,1.813,1
0.4764,-0.4108,0.5291,-0.5693,11.611064,-88.53901,183.78218,167.86978,0.2509,-1.1005,-0.0458,0.226,-1.083,1.172,27.136,15.749,1.813,1
0.4828,-0.4098,0.528,-0.5657,13.009418,-87.90739,184.78185,167.34836,0.2973,-1.1147,-0.019,0.378,-1.002,1.123,27.136,15.749,1.813,1
0.4943,-0.4004,0.5284,-0.5621,13.359432,-86.32748,187.37779,165.57063,0.2314,-1.0297,0.0166,0.273,0.474,0.435,27.136,15.749,1.813,1
0.4904,-0.3958,0.5316,-0.5657,13.3462715,-86.35346,187.51117,165.39946,0.1796,-1.0253,0.0234,0.074,0.878,-0.021,27.736,25.499,6.013,1
0.4871,-0.394,0.5336,-0.568,14.323288,-86.49966,187.38329,165.4939,0.1816,-1.0703,0.0371,-0.031,0.976,-0.155,27.736,25.499,6.013,1
0.4474,-0.375,0.5563,-0.5911,15.059713,-88.174126,185.67235,167.49304,0.02,-1.1381,0.1918,-0.143,2.716,-1.116,27.736,25.499,6.013,1
0.4255,-0.3697,0.5628,-0.6044,15.212087,-89.68454,183.36006,168.73254,-0.0615,-1.0043,0.1342,-0.331,2.171,-1.454,27.736,25.499,6.013,1
0.4164,-0.3703,0.5649,-0.6084,13.491796,-90.39281,182.09406,169.75366,-0.0493,-1.0214,0.123,-0.546,1.487,-1.419,27.736,25.499,6.013,1
0.379,-0.4493,0.5123,-0.626,7.3102207,-100.80329,161.52383,178.00304,0.3139,-0.7446,0.1347,0.084,-1.312,-1.559,22.036,26.549,3.613,1
0.3317,-0.488,0.4611,-0.6627,18.981066,-110.764404,145.51508,181.84645,0.2031,-1.0424,0.1,-0.121,0.129,-1.659,10.186,21.449,10.813,1
0.2873,-0.5112,0.4542,-0.6706,19.7881,-114.29459,136.50471,195.58351,0.2177,-1.1918,0.1503,-1.113,0.216,-1.47,10.186,21.449,10.813,1
0.2793,-0.5147,0.4554,-0.6704,20.560028,-114.42349,135.11372,198.76262,0.1909,-1.1884,0.122,-1.239,0.316,-1.296,10.186,21.449,10.813,1
0.2716,-0.5175,0.4571,-0.6703,21.317492,-114.42288,133.86967,201.82149,0.1923,-1.1801,0.0751,-1.227,0.419,-1.152,10.186,21.449,10.813,1
0.2571,-0.521,0.4602,-0.6711,22.759455,-114.30097,131.74547,207.19887,0.1938,-1.1542,0.0747,-0.989,0.626,-0.982,10.186,21.449,10.813,1
0.2505,-0.522,0.4616,-0.6719,23.322626,-114.201256,130.85861,209.50996,0.1684,-1.0957,0.08,-0.872,0.639,-0.912,10.186,21.449,10.813,1
0.2361,-0.5306,0.4647,-0.6683,12.938798,-113.484726,128.02524,216.19331,0.0224,-1.1669,-0.0776,-0.654,-0.732,-0.549,10.186,21.449,10.813,1
0.3653,-0.549,0.4443,-0.6063,10.891602,-109.58235,142.40273,187.76018,0.4155,-1.0126,-0.1215,0.892,-0.224,1.823,0.436,28.199,24.463,1
0.3744,-0.5447,0.4454,-0.6037,8.706171,-108.727295,144.38785,185.60876,0.4213,-1.019,-0.0874,0.983,-0.516,1.852,0.436,28.199,24.463,1
0.4555,-0.4147,0.5163,-0.5948,11.181119,-92.18364,177.65468,166.32964,0.0454,-0.9697,0.0312,0.108,1.282,1.02,14.836,-16.337,5.563,1
0.4451,-0.3903,0.5415,-0.5968,12.306903,-90.29635,181.67252,167.38982,0.0136,-1.1909,0.1079,0.183,0.895,-0.023,14.836,-16.337,5.563,1
0.4428,-0.3874,0.5434,-0.5987,12.66165,-90.28849,181.79382,167.32051,0.0312,-1.228,0.1147,0.04,0.941,0.008,14.836,-16.337,5.563,1
0.42,-0.386,0.5542,-0.606,12.463228,-91.48314,179.75717,170.40117,0.0478,-0.895,0.2041,-0.416,-0.594,-0.428,26.386,-8.537,-4.787,1
0.4206,-0.3903,0.5526,-0.6043,11.906878,-91.66779,179.27393,170.87408,0.1054,-0.8959,0.2221,-0.394,-0.876,-0.356,26.386,-8.537,-4.787,1
0.4216,-0.3947,0.5508,-0.6024,11.413893,-91.83339,178.82367,171.30647,0.1503,-0.9282,0.2373,-0.339,-0.97,-0.296,26.386,-8.537,-4.787,1
0.423,-0.4017,0.5476,-0.5997,10.700038,-92.147446,178.02895,171.94722,0.1655,-0.9741,0.2348,-0.236,-0.65,-0.275,26.386,-8.537,-4.787,1
0.4162,-0.4161,0.532,-0.6086,7.8458343,-94.75152,173.30014,171.99243,0.1381,-0.9902,0.1699,0.331,-0.279,-0.948,26.386,-8.537,-4.787,1
0.4121,-0.4286,0.5189,-0.614,6.525203,-96.73995,169.69208,172.01944,0.2246,-0.9194,0.1674,0.184,-0.769,-1.172,21.436,-7.187,0.164,1
0.4112,-0.4342,0.5139,-0.6149,5.8161926,-97.43503,168.3808,172.15251,0.2548,-0.9116,0.1562,0.147,-0.955,-1.171,21.436,-7.187,0.164,1
0.4104,-0.4458,0.5033,-0.616,4.6881843,-98.7794,165.8379,172.28548,0.3134,-0.8994,0.184,0.187,-1.11,-1.102,21.436,-7.187,0.164,1
0.406,-0.4618,0.482,-0.624,5.128174,-101.58097,161.05472,171.14362,0.2543,-0.9555,0.1591,0.318,-0.072,-0.726,21.436,-7.187,0.164,1
0.4044,-0.4625,0.4798,-0.6262,5.4525223,-101.96685,160.47885,170.9019,0.2285,-0.9731,0.142,0.273,0.099,-0.657,21.436,-7.187,0.164,1
0.3983,-0.4634,0.4755,-0.6327,6.480307,-103.01127,158.9592,170.59229,0.1513,-1.0205,0.1181,0.143,0.273,-0.657,21.436,-7.187,0.164,1
0.3934,-0.4654,0.4724,-0.6366,7.0960174,-103.829506,157.68982,170.74687,0.1367,-1.0107,0.1264,0.039,0.12,-0.797,21.436,-7.187,0.164,1
0.4868,-0.5182,0.4457,-0.5437,0.0,-97.084305,166.13026,171.14978,0.1318,-0.9936,0.0756,-0.001,0.003,0.005,-1.2,-3.587,28.049,2
0.4868,-0.5182,0.4457,-0.5437,0.0,-97.084305,166.13026,171.14978,0.1411,-1.0073,0.0708,0.003,0.004,0.001,-1.2,-3.587,28.049,2
0.4868,-0.5182,0.4457,-0.5437,0.01619878,-97.084305,166.13026,171.14978,0.1279,-1.0024,0.0771,-0.001,0.009,0.004,-1.2,-3.587,28.049,2
0.4866,-0.5178,0.4462,-0.5439,0.090899035,-97.05986,166.1877,171.1789,0.1284,-1.0009,0.0634,0.001,0.02,0.013,-1.2,-3.587,28.049,2
0.4866,-0.5177,0.4462,-0.544,0.10562549,-97.05846,166.19104,171.15453,0.125,-1.0063,0.0668,0.006,0.019,0.011,-1.2,-3.587,28.049,2
0.4866,-0.5176,0.4463,-0.544,0.17418489,-97.047615,166.21289,171.15819,0.1254,-1.0024,0.0659,0.0,0.016,0.002,-1.2,-3.587,28.049,2
0.4866,-0.5171,0.4466,-0.5442,0.17418489,-97.01229,166.28514,171.12042,0.1293,-0.9931,0.0693,0.003,-0.001,0.004,-2.1,-4.937,27.899,2
0.4866,-0.5171,0.4466,-0.5442,0.17418489,-97.01229,166.28514,171.12042,0.1259,-1.0029,0.062,0.005,0.0,0.007,-2.1,-4.937,27.899,2
0.4866,-0.5171,0.4466,-0.5442,0.17418489,-97.01229,166.28514,171.12042,0.1289,-1.0107,0.0673,-0.004,-0.003,0.009,-2.1,-4.937,27.899,2
0.4866,-0.5171,0.4466,-0.5442,0.17418489,-97.01229,166.28514,171.12042,0.1274,-0.999,0.0639,-0.001,-0.006,0.004,-2.1,-4.937,27.899,2
0.4868,-0.5172,0.4465,-0.544,0.1507386,-96.99943,166.30356,171.11772,0.1259,-1.0043,0.0668,0.001,-0.006,0.007,-0.9,-5.087,26.699,2
0.4868,-0.5172,0.4465,-0.544,0.1507386,-96.99943,166.30356,171.11772,0.1318,-0.9995,0.0717,0.004,0.001,0.0,-0.9,-5.087,26.699,2
0.4868,-0.5172,0.4465,-0.544,0.1507386,-96.99943,166.30356,171.11772,0.1352,-0.997,0.0776,0.005,-0.007,0.0,-0.9,-5.087,26.699,2
0.4868,-0.5172,0.4465,-0.544,0.15105371,-96.99943,166.30356,171.11772,0.1279,-1.0014,0.0737,0.007,-0.009,0.004,-0.9,-5.087,26.699,2
0.4869,-0.5172,0.4464,-0.544,0.1445128,-96.997,166.30518,171.09018,0.1381,-1.0048,0.0737,0.002,-0.007,0.005,-0.9,-5.087,26.699,2
0.4869,-0.5172,0.4464,-0.544,0.1445128,-96.997,166.30518,171.09018,0.1459,-0.9956,0.0805,0.006,0.001,0.0,-0.9,-5.087,26.699,2
0.4869,-0.5172,0.4464,-0.544,1.6790705,-96.997,166.30518,171.09018,0.1401,-1.0083,0.0732,-0.001,0.009,0.0,-0.9,-5.087,26.699,2
0.4774,-0.5133,0.453,-0.5507,1.6790705,-97.433945,165.74689,171.97562,0.0942,-1.0131,0.1279,-0.06,0.267,-0.111,-1.35,-4.487,27.149,2
0.4765,-0.5129,0.4534,-0.5515,1.9623282,-97.49199,165.66104,172.00293,0.0766,-1.0053,0.1333,-0.057,0.25,-0.138,-1.35,-4.487,27.149,2
0.4756,-0.5126,0.4536,-0.5523,2.0782518,-97.56601,165.54335,172.0122,0.0625,-0.9965,0.1313,-0.044,0.212,-0.16,-1.35,-4.487,27.149,2
0.4748,-0.5125,0.4537,-0.5531,2.1802804,-97.64977,165.40448,172.0178,0.0556,-0.999,0.1455,-0.043,0.175,-0.177,-1.35,-4.487,27.149,2
0.474,-0.5124,0.4536,-0.5538,2.2574139,-97.73892,165.2535,172.00581,0.0366,-0.9956,0.1381,-0.022,0.145,-0.196,-1.35,-4.487,27.149,2
0.4734,-0.5125,0.4534,-0.5545,2.2880821,-97.830765,165.09363,171.97699,0.0375,-0.9858,0.1225,-0.014,0.086,-0.207,-0.6,-3.287,27.899,2
0.4729,-0.5129,0.4529,-0.5549,2.2754397,-97.93401,164.90419,171.96317,0.0195,-0.9931,0.1137,-0.004,-0.007,-0.235,-0.6,-3.287,27.899,2
0.4727,-0.5136,0.452,-0.5553,2.2675877,-98.05387,164.67638,171.88484,0.0366,-0.9916,0.1186,0.015,-0.105,-0.261,-0.6,-3.287,27.899,2
0.472,-0.5153,0.4498,-0.5561,2.3101728,-98.35236,164.10971,171.73955,0.06,-0.9541,0.1088,0.029,-0.147,-0.322,-0.6,-3.287,27.899,2
0.4711,-0.5175,0.447,-0.557,2.45586,-98.728966,163.39398,171.57048,0.0957,-0.9218,0.104,0.019,-0.18,-0.387,-0.6,-3.287,27.899,2
0.4705,-0.5187,0.4455,-0.5576,2.5938768,-98.945724,162.9856,171.48088,0.102,-0.8891,0.1049,0.019,-0.176,-0.422,-0.6,-3.287,27.899,2
0.4696,-0.5201,0.4441,-0.5582,2.9980373,-99.190704,162.52719,171.46994,0.1079,-0.8769,0.1035,0.009,-0.138,-0.445,-0.6,-3.287,27.899,2
0.4672,-0.5224,0.4416,-0.56,3.491288,-99.70751,161.58249,171.43723,0.1103,-0.8676,0.0605,-0.029,-0.02,-0.459,-0.6,-3.287,27.899,2
0.4639,-0.5269,0.4382,-0.5613,4.420617,-100.439804,160.21622,171.71338,0.0688,-1.125,-0.1113,-0.012,-0.183,-0.129,-0.6,-3.287,27.899,2
0.4583,-0.5309,0.4356,-0.564,4.7669363,-101.3329,158.6,172.20956,0.2021,-1.0751,0.0571,-0.123,0.341,-0.472,-5.25,-3.587,29.099,2
0.4526,-0.53,0.4372,-0.5682,5.4714823,-101.80267,157.85457,172.64503,0.1284,-1.0815,0.122,-0.216,0.687,-0.388,-5.25,-3.587,29.099,2
0.4433,-0.5249,0.4439,-0.5751,6.381298,-102.139305,157.45575,173.6188,-0.0659,-1.0908,0.0732,-0.201,0.861,-0.188,-5.25,-3.587,29.099,2
0.4418,-0.5243,0.445,-0.5759,6.3810387,-102.18801,157.38562,173.85129,-0.1416,-1.0761,0.0263,-0.157,0.387,-0.224,-5.25,-3.587,29.099,2
0.4469,-0.535,0.4358,-0.5691,5.7516494,-102.604095,156.33186,173.77783,0.0346,-0.9653,0.0131,0.16,-0.725,-0.191,-5.25,-3.587,29.099,2
0.466,-0.5412,0.4248,-0.5561,4.3123074,-101.55343,157.85695,171.58792,0.0913,-0.9589,0.0205,0.142,-0.065,0.268,-6.3,-4.637,31.049,2
0.4671,-0.5401,0.4256,-0.5557,2.330049,-101.35038,158.2305,171.49245,0.0844,-0.9741,0.0312,0.126,0.05,0.306,-6.3,-4.637,31.049,2
0.476,-0.5289,0.4349,-0.5518,2.1767535,-99.40375,161.84781,171.0217,0.0429,-1.0893,0.0473,0.105,0.022,0.274,-6.3,-4.637,31.049,2
0.4779,-0.5269,0.4357,-0.5514,1.8896217,-99.087944,162.42374,170.71988,0.0468,-1.1196,0.0239,0.136,0.036,0.261,-6.3,-4.637,31.049,2
0.4799,-0.527,0.4376,-0.5479,1.5498043,-98.697296,163.11505,171.23607,0.1225,-1.2211,-0.0141,-0.122,-0.219,0.09,-1.05,-5.237,28.199,2
0.4813,-0.5275,0.4379,-0.546,1.4453388,-98.52396,163.40651,171.41037,0.184,-1.33,-0.062,-0.044,-0.15,0.215,-1.05,-5.237,28.199,2
0.4818,-0.5273,0.4387,-0.5452,1.3845215,-98.40026,163.63513,171.55411,0.1752,-1.3642,-0.0444,-0.078,-0.033,0.232,-1.05,-5.237,28.199,2
0.4792,-0.5281,0.4401,-0.5456,1.8191751,-98.58531,163.33426,172.1527,0.2421,-1.2368,0.0043,-0.172,0.059,-0.282,-1.05,-5.237,28.199,2
0.4777,-0.5293,0.4394,-0.5462,2.0994592,-98.82663,162.89111,172.30125,0.3144,-1.2006,0.018,-0.15,0.0,-0.418,-1.05,-5.237,28.199,2
0.4746,-0.533,0.4354,-0.5485,2.6741707,-99.57364,161.49379,172.20813,0.3974,-1.1064,0.104,0.073,-0.169,-0.356,-1.05,-5.237,28.199,2
0.4742,-0.5344,0.4334,-0.549,2.9743695,-99.80745,161.04227,172.03648,0.2963,-0.9511,0.0605,0.017,-0.137,-0.177,-1.05,-5.237,28.199,2
0.4749,-0.5368,0.4306,-0.5483,3.232841,-100.00451,160.62183,171.85976,0.3881,-0.7949,0.038,0.078,-0.414,-0.139,-1.05,-5.237,28.199,2
0.4769,-0.5379,0.4281,-0.5475,3.2117233,-100.00865,160.55246,171.41475,0.5112,-0.7236,0.1293,0.174,-0.21,0.012,-1.05,-5.237,28.199,2
0.4768,-0.537,0.4281,-0.5484,2.9462974,-100.00257,160.5776,171.20198,0.5327,-0.7172,0.1713,0.118,0.216,0.138,-1.05,-5.237,28.199,2
0.4743,-0.5319,0.4337,-0.5511,2.565887,-99.733284,161.22,171.49826,0.4243,-0.7539,0.1489,-0.16,0.97,0.278,-2.25,-9.587,29.549,2
0.4715,-0.5289,0.4378,-0.5532,2.7148802,-99.65322,161.47491,171.90828,0.3554,-0.8276,0.1118,-0.329,1.229,0.281,-2.25,-9.587,29.549,2
0.4639,-0.5227,0.448,-0.5574,3.667261,-99.507,161.95074,173.2827,0.246,-1.0053,0.0117,-0.504,1.442,0.199,-2.25,-9.587,29.549,2
0.46,-0.5199,0.4523,-0.5598,4.767319,-99.504196,162.03534,173.84998,0.1948,-1.0239,-0.0058,-0.406,1.345,0.059,-2.25,-9.587,29.549,2
0.4531,-0.5158,0.4575,-0.5649,5.2477903,-99.71048,161.78189,174.4827,0.1274,-1.0366,0.0351,-0.185,0.996,-0.264,-2.25,-9.587,29.549,2
0.4297,-0.522,0.4471,-0.5855,8.534762,-103.24222,155.70941,174.57959,0.1577,-0.8061,0.104,-0.004,0.203,-0.786,-2.25,-9.587,29.549,2
0.4268,-0.5232,0.4458,-0.5875,8.943025,-103.67649,154.95656,174.73814,0.1474,-0.7841,0.0625,-0.066,0.215,-0.784,-2.25,-9.587,29.549,2
0.4159,-0.5276,0.4395,-0.5961,10.73402,-105.438515,152.00157,174.98373,0.2172,-0.81,0.1757,0.019,0.448,-0.713,-4.2,-11.237,31.649,2
0.395,-0.5183,0.4457,-0.6136,13.444753,-106.8455,150.14331,176.32912,-0.0283,-0.9272,-0.0429,-0.058,0.507,-0.457,-4.2,-11.237,31.649,2
0.3924,-0.5227,0.4399,-0.6157,13.719617,-107.70356,148.72514,176.1547,0.0766,-0.9414,0.0024,0.237,-0.472,-0.696,-4.2,-11.237,31.649,2
0.3909,-0.5301,0.4296,-0.6175,14.324276,-108.90229,146.76428,175.36607,0.27,-0.9965,0.1582,0.139,-0.339,-0.73,-4.2,-11.237,31.649,2
0.3893,-0.5316,0.4278,-0.6185,14.606396,-109.24464,146.2037,175.42532,0.2739,-1.0458,0.144,0.002,-0.099,-0.643,-4.2,-11.237,31.649,2
0.3873,-0.5326,0.4269,-0.6196,14.851353,-109.537796,145.71967,175.6549,0.2612,-1.1118,0.1206,-0.08,0.09,-0.533,-4.2,-11.237,31.649,2
0.3837,-0.5337,0.4266,-0.6211,15.219127,-109.923386,145.05022,176.29787,0.2509,-1.2221,0.0747,-0.189,0.158,-0.307,-4.2,-11.237,31.649,2
0.3821,-0.5342,0.4269,-0.6214,15.356771,-110.04828,144.79428,176.72386,0.2636,-1.2377,0.0766,-0.207,0.132,-0.234,-4.2,-11.237,31.649,2
0.3808,-0.5345,0.4272,-0.6217,15.467504,-110.14281,144.60168,177.05984,0.2836,-1.25,0.0893,-0.193,0.123,-0.18,-4.2,-11.237,31.649,2
0.3796,-0.5348,0.4278,-0.6218,15.596733,-110.20015,144.44962,177.46138,0.31,-1.2485,0.1152,-0.227,0.136,-0.135,-4.2,-11.237,31.649,2
0.3782,-0.5349,0.4287,-0.622,15.89799,-110.244675,144.31474,177.92145,0.3159,-1.2377,0.1293,-0.249,0.203,-0.098,-5.85,-12.137,-31.487,2
0.3749,-0.5337,0.4318,-0.6228,16.218554,-110.22793,144.23372,178.9361,0.29,-1.2412,0.1518,-0.326,0.452,0.008,-5.85,-12.137,-31.487,2
0.3678,-0.5329,0.4451,-0.6183,15.990175,-109.41587,144.47826,183.36162,0.1699,-0.9335,0.1191,-0.143,-0.217,-0.119,-5.85,-12.137,-31.487,2
0.3689,-0.5349,0.4449,-0.6162,15.745871,-109.33971,144.4242,183.65611,0.1181,-0.8051,0.0971,-0.09,-0.336,0.113,-5.85,-12.137,-31.487,2
0.3704,-0.5359,0.445,-0.6143,15.357971,-109.18942,144.56805,183.73796,0.0913,-0.7695,0.0502,-0.098,-0.466,0.268,-5.85,-12.137,-31.487,2
0.3729,-0.5372,0.4452,-0.6115,8.678511,-108.94117,144.84998,183.78136,0.0668,-0.7597,-0.0317,-0.097,-0.698,0.427,-5.85,-12.137,-31.487,2
0.4291,-0.5604,0.4298,-0.5629,7.3508997,-105.19531,150.68744,179.7886,0.4536,-1.144,-0.0361,0.527,-2.357,1.223,-4.2,-15.737,-28.037,2
0.5353,-0.5124,0.4538,-0.4948,8.587808,-90.61046,177.71086,172.486,0.1401,-0.7998,-0.081,0.613,0.114,1.488,-0.9,-21.887,-31.637,2
0.5396,-0.5071,0.4567,-0.4929,9.197798,-89.74948,179.24605,172.12988,0.1206,-0.8144,-0.0717,0.555,0.246,1.463,-0.9,-21.887,-31.637,2
0.5433,-0.5018,0.4602,-0.4911,9.782526,-88.907974,180.76755,171.90189,0.1137,-0.83,-0.0566,0.455,0.397,1.441,-0.9,-21.887,-31.637,2
0.5497,-0.4871,0.4732,-0.4863,11.369983,-86.70378,184.94118,171.99226,0.1147,-0.893,-0.0507,0.074,0.706,1.271,-0.9,-21.887,-31.637,2
0.5505,-0.4829,0.4781,-0.4847,11.885751,-86.078896,186.19919,172.26222,0.1259,-0.9541,-0.0537,-0.049,0.747,1.227,-0.9,-21.887,-31.637,2
0.5512,-0.4743,0.4891,-0.4814,13.096985,-84.81009,188.81152,172.96767,0.1337,-1.0957,-0.0786,-0.191,0.908,1.249,-0.9,-21.887,-31.637,2
0.5479,-0.4568,0.5111,-0.4792,14.61195,-82.75181,193.16373,174.06909,-0.0224,-1.2294,-0.0034,-0.189,1.2,0.546,-0.9,-21.887,-31.637,2
0.5412,-0.4525,0.5185,-0.483,14.314936,-82.74563,193.45197,174.5415,-0.019,-1.2358,0.0151,-0.245,1.114,-0.119,-0.9,-21.887,-31.637,2
0.5283,-0.4529,0.5247,-0.4901,6.4698806,-83.64093,192.14232,175.60312,0.04,-1.2685,0.0795,-0.469,0.864,-0.658,-0.9,-21.887,-31.637,2
0.4531,-0.5028,0.4876,-0.5513,6.933953,-96.52362,167.39056,178.80286,0.1713,-0.8271,0.103,-0.063,1.08,-1.491,-5.85,-26.237,-22.787,2
0.4465,-0.5037,0.4863,-0.557,7.3624983,-97.35821,165.8105,179.01378,0.1064,-0.789,0.0371,-0.046,1.04,-1.522,-5.85,-26.237,-22.787,2
0.4405,-0.5052,0.484,-0.5623,7.590675,-98.22769,164.18393,179.15018,0.0703,-0.7426,-0.0385,0.034,0.763,-1.558,-5.85,-26.237,-22.787,2
0.4362,-0.5077,0.48,-0.5669,7.7165213,-99.11602,162.56798,179.02325,0.0664,-0.6909,-0.0581,0.251,0.272,-1.588,-5.85,-26.237,-22.787,2
0.4331,-0.5107,0.4748,-0.571,7.8855243,-100.00625,160.99481,178.66281,0.1298,-0.6621,0.0151,0.421,-0.102,-1.579,-5.85,-26.237,-22.787,2
0.4237,-0.5142,0.4636,-0.584,10.521934,-102.1584,157.43306,177.3691,0.2622,-0.7949,0.2666,0.325,0.76,-1.036,-5.85,-26.237,-22.787,2
0.4136,-0.5089,0.4646,-0.5949,11.484835,-103.034256,156.20892,177.15276,0.1362,-0.8461,0.1562,0.127,1.593,-0.716,-5.85,-26.237,-22.787,2
0.4028,-0.5013,0.468,-0.606,13.188667,-103.70003,155.43486,177.14883,-0.0146,-0.8715,-0.0043,0.067,1.688,-0.571,-5.85,-26.237,-22.787,2
0.393,-0.4967,0.4656,-0.618,14.3113365,-104.87495,153.96991,176.41727,-0.1015,-0.8764,-0.0629,0.41,0.371,-0.796,-5.85,-26.237,-22.787,2
0.3919,-0.4978,0.4621,-0.6204,14.390105,-105.34857,153.31004,175.91234,-0.0605,-0.915,-0.0341,0.516,-0.08,-0.924,-5.85,-26.237,-22.787,2
0.391,-0.5032,0.4523,-0.6238,14.520363,-106.46627,151.62029,174.77554,0.0283,-0.9619,0.017,0.553,-0.625,-1.089,-5.85,-26.237,-22.787,2
0.3887,-0.5179,0.4325,-0.6272,15.6840725,-108.73669,147.88518,173.29744,0.2729,-1.0654,0.1411,0.205,-0.613,-0.852,-16.8,-29.387,-19.487,2
0.3827,-0.5221,0.428,-0.6305,15.6840725,-109.793205,146.17844,173.80669,0.3056,-1.1855,0.1499,-0.133,0.311,-0.56,-16.8,-29.387,-19.487,2
0.3796,-0.5218,0.4284,-0.6324,16.493723,-110.05825,145.79971,174.22678,0.2783,-1.2255,0.1098,-0.196,0.535,-0.481,-16.8,-29.387,-19.487,2
0.3626,-0.5234,0.4323,-0.6383,17.795527,-111.280815,143.571,178.13504,0.0649,-1.4252,0.0351,-0.372,-0.241,-0.106,-16.8,-29.387,-19.487,2
0.3629,-0.526,0.4327,-0.6358,17.505968,-111.22229,143.36926,178.87483,0.0815,-1.4975,-0.0141,-0.437,-0.619,0.042,-16.8,-29.387,-19.487,2
0.364,-0.5294,0.4323,-0.6326,17.198517,-111.16888,143.13365,179.49525,0.124,-1.3823,-0.0273,-0.362,-0.925,0.04,-16.8,-29.387,-19.487,2
0.3657,-0.5335,0.4304,-0.6294,16.873432,-111.215416,142.78775,179.80127,0.2114,-1.249,-0.0175,-0.172,-1.175,-0.118,-16.8,-29.387,-19.487,2
0.3715,-0.5435,0.4228,-0.6226,16.102715,-111.48832,141.93774,179.4559,0.3427,-0.9858,0.1059,0.199,-1.671,-0.228,-16.8,-29.387,-19.487,2
0.3838,-0.5535,0.4138,-0.6123,14.628046,-111.25919,141.94527,177.85529,0.2963,-0.7724,0.1088,0.253,-1.224,0.395,-23.85,31.649,-15.137,2
0.3886,-0.5554,0.4128,-0.6082,13.921376,-110.89925,142.39102,177.47716,0.2724,-0.7802,0.0039,0.181,-1.197,0.649,-23.85,31.649,-15.137,2
0.3942,-0.5572,0.4125,-0.6032,13.1027975,-110.3913,143.04784,177.20697,0.2744,-0.8452,-0.1313,0.109,-1.312,0.912,-23.85,31.649,-15.137,2
0.4006,-0.5594,0.4124,-0.5968,5.0088725,-109.76949,143.84508,177.09505,0.29,-0.9282,-0.2377,0.12,-1.534,1.117,-23.85,31.649,-15.137,2
0.4662,-0.5531,0.4297,-0.5403,4.1025257,-101.23809,158.10356,175.94785,0.4331,-0.8349,0.1796,-0.336,1.029,1.866,-23.85,31.649,-15.137,2
0.4737,-0.5252,0.4638,-0.5333,3.0057106,-96.91524,166.463,177.64427,0.0639,-0.7075,0.06,0.064,0.468,1.299,-23.85,31.649,-15.137,2
0.529,-0.5077,0.4637,-0.4973,8.291289,-90.40785,178.43889,173.60362,0.225,-0.8427,-0.0537,0.494,-0.46,1.382,-21.75,-27.287,-14.537,2
0.5338,-0.5039,0.4654,-0.4944,8.946253,-89.61957,179.84898,173.29137,0.2197,-0.853,-0.0424,0.458,-0.181,1.365,-21.75,-27.287,-14.537,2
0.5376,-0.4996,0.4681,-0.4921,9.551963,-88.84952,181.25063,173.08728,0.2026,-0.8588,-0.0288,0.379,0.125,1.336,-21.75,-27.287,-14.537,2
0.542,-0.4898,0.4765,-0.4889,10.665148,-87.37872,184.04176,173.05708,0.1586,-0.8837,-0.0307,0.104,0.723,1.304,-21.75,-27.287,-14.537,2
0.5411,-0.4752,0.4946,-0.4863,12.331278,-85.52198,187.89822,174.01317,0.0693,-1.0122,-0.0429,-0.212,1.249,1.153,-21.75,-27.287,-14.537,2
0.54,-0.4702,0.5012,-0.4858,12.962357,-84.93177,189.15144,174.37465,0.0385,-1.1166,-0.0629,-0.261,1.302,1.125,-21.75,-27.287,-14.537,2
0.5388,-0.4652,0.5076,-0.4851,13.547806,-84.34232,190.39795,174.72623,-0.0131,-1.1997,-0.0708,-0.278,1.279,1.088,-21.75,-27.287,-14.537,2
0.5374,-0.4607,0.5136,-0.4847,14.021588,-83.82927,191.49355,175.05466,-0.0786,-1.2578,-0.0786,-0.28,1.219,0.949,-21.75,-27.287,-14.537,2
0.5359,-0.4571,0.5186,-0.4846,14.396089,-83.441864,192.33423,175.33656,-0.122,-1.3056,-0.0756,-0.251,1.07,0.723,-21.75,-27.287,-14.537,2
0.5328,-0.4541,0.5238,-0.4851,8.275709,-83.20822,192.9219,175.77255,-0.1459,-1.2602,-0.0292,-0.215,0.456,0.033,-12.0,-17.087,-20.537,2
0.4691,-0.5124,0.4793,-0.5362,4.910395,-95.7472,168.76823,178.48723,0.3247,-0.9741,0.186,-0.334,1.159,-1.371,-16.05,-14.387,-17.237,2
0.4609,-0.5129,0.4794,-0.5427,5.5637097,-96.61938,167.08134,178.89981,0.2514,-0.9389,0.1132,-0.33,1.442,-1.524,-16.05,-14.387,-17.237,2
0.4225,-0.5208,0.4593,-0.5823,13.629181,-102.74753,156.17107,177.99405,0.1923,-0.7211,0.0712,0.368,0.314,-1.393,-16.05,-14.387,-17.237,2
0.3888,-0.513,0.4485,-0.62,14.822311,-107.133606,149.9643,176.43137,0.0117,-0.9433,-0.0185,0.191,0.919,-0.817,-16.05,-14.387,-17.237,2
0.3854,-0.5122,0.4473,-0.6236,15.3469925,-107.57424,149.40005,176.3104,-0.0029,-0.9321,-0.0097,0.209,0.703,-0.873,-26.25,-16.187,-16.337,2
0.3821,-0.5121,0.4456,-0.6268,15.832799,-108.05443,148.74814,176.24043,0.0117,-0.9487,-0.0102,0.204,0.524,-0.976,-26.25,-16.187,-16.337,2
0.3761,-0.5141,0.4412,-0.632,16.64126,-109.0847,147.2414,176.29385,0.0795,-1.0087,-0.0024,0.148,0.159,-1.019,-26.25,-16.187,-16.337,2
0.366,-0.5205,0.4318,-0.6391,18.032417,-111.00924,144.31084,176.72534,0.1933,-1.124,0.1049,-0.014,0.033,-0.804,-26.25,-16.187,-16.337,2
0.3637,-0.5218,0.4306,-0.6402,18.294088,-111.351105,143.75217,177.05963,0.2148,-1.185,0.1313,-0.076,0.064,-0.632,-26.25,-16.187,-16.337,2
0.3615,-0.5227,0.4302,-0.641,18.569643,-111.598434,143.31828,177.51228,0.2216,-1.2158,0.1284,-0.182,0.134,-0.478,-26.25,-16.187,-16.337,2
0.359,-0.5234,0.4304,-0.6417,18.861261,-111.80759,142.91426,178.14009,0.2114,-1.2587,0.1093,-0.291,0.217,-0.407,-26.25,-16.187,-16.337,2
0.3481,-0.5262,0.4327,-0.6439,19.927053,-112.52267,141.29153,181.3172,0.225,-1.1826,0.1499,-0.334,0.199,-0.393,-26.25,-16.187,-16.337,2
0.3459,-0.5268,0.4334,-0.6441,19.917753,-112.62849,140.97746,182.0573,0.207,-1.2309,0.1494,-0.357,0.198,-0.288,-26.25,-16.187,-16.337,2
0.3478,-0.5368,0.4336,-0.6345,18.906103,-112.39154,140.1479,184.47696,0.2709,-1.0708,0.017,-0.043,-1.013,-0.168,-27.0,-11.537,-15.287,2
0.3502,-0.5408,0.4308,-0.6318,18.50036,-112.49281,139.82799,184.3552,0.3383,-0.9589,0.0693,0.105,-1.247,-0.167,-27.0,-11.537,-15.287,2
0.3575,-0.547,0.4254,-0.6259,17.495436,-112.4436,139.76967,183.31488,0.3671,-0.8774,0.1582,0.25,-1.22,0.219,-27.0,-11.537,-15.287,2
0.3619,-0.5489,0.4239,-0.6227,16.839144,-112.21903,140.0801,182.7009,0.3291,-0.9023,0.1088,0.237,-1.105,0.467,-27.0,-11.537,-15.287,2
0.3927,-0.5568,0.4201,-0.5992,12.779239,-109.781715,143.61772,179.5169,0.4414,-1.0126,-0.1962,0.372,-1.545,1.024,-27.0,-11.537,-15.287,2
0.3998,-0.5585,0.4189,-0.5938,11.961618,-109.219376,144.474,178.82254,0.4545,-1.0146,-0.1796,0.363,-1.556,1.044,-27.0,-11.537,-15.287,2
0.4069,-0.5601,0.4179,-0.5881,11.196599,-108.61905,145.38797,178.23782,0.4697,-1.0244,-0.1254,0.319,-1.533,1.08,-27.0,-11.537,-15.287,2
0.4315,-0.5569,0.4245,-0.5686,7.342819,-105.46549,150.63846,177.20238,0.4311,-0.8291,0.1342,-0.072,0.094,1.285,-27.0,-11.537,-15.287,2
0.4443,-0.5388,0.4459,-0.5596,5.131547,-101.943016,157.10226,177.57701,0.1796,-0.6508,0.0102,0.124,0.156,1.157,-11.4,-7.187,-20.237,2
0.5084,-0.4802,0.4897,-0.5205,8.443846,-89.98567,179.78773,173.2309,0.1469,-1.1035,-0.0288,-0.121,1.246,1.135,-11.4,-7.187,-20.237,2
0.4927,-0.4508,0.5238,-0.5286,11.310641,-87.89241,184.33943,174.61649,-0.1191,-1.3007,-0.0283,-0.189,0.377,-0.348,12.449,-7.937,32.549,2
0.4913,-0.4581,0.5217,-0.5257,11.004254,-88.35046,183.42697,175.69867,0.0527,-1.6108,0.124,-0.443,-0.401,-0.256,12.449,-7.937,32.549,2
0.4888,-0.4617,0.5211,-0.5255,10.53679,-88.72817,182.6893,176.34834,0.0317,-1.4643,0.1831,-0.547,-0.194,-0.693,12.449,-7.937,32.549,2
0.4848,-0.4661,0.5195,-0.5269,9.972986,-89.38453,181.40044,176.98172,0.0483,-1.3227,0.2021,-0.512,-0.065,-1.199,12.449,-7.937,32.549,2
0.4762,-0.4752,0.5135,-0.5326,8.767991,-91.068855,178.07782,177.7552,0.1279,-1.0253,0.0898,-0.179,-0.083,-1.533,12.449,-7.937,32.549,2
0.4726,-0.4797,0.5097,-0.5353,8.1356945,-91.90384,176.42805,177.989,0.2451,-0.8979,0.038,-0.108,-0.221,-1.426,12.449,-7.937,32.549,2
0.4698,-0.4879,0.5007,-0.5389,6.819877,-93.25153,173.79576,177.84079,0.4008,-0.8076,0.0991,0.22,-0.673,-0.935,12.449,-7.937,32.549,2
0.4706,-0.4912,0.496,-0.5394,6.270654,-93.68795,172.95656,177.49854,0.4155,-0.8491,0.1557,0.276,-0.858,-0.633,12.449,-7.937,32.549,2
0.4723,-0.4942,0.4924,-0.5386,5.952588,-93.91552,172.5041,177.28375,0.4228,-0.9458,0.1733,0.146,-0.94,-0.271,12.449,-7.937,32.549,2
0.4766,-0.4978,0.4897,-0.5339,5.7488537,-93.751205,172.7644,177.37856,0.4628,-1.0996,0.0815,-0.071,-0.685,0.236,12.449,-7.937,32.549,2
0.4763,-0.4948,0.4909,-0.5359,12.139487,-93.64234,173.02065,176.9753,0.4926,-1.0244,0.0957,0.14,0.76,-0.079,13.499,-12.437,-27.137,2
0.4154,-0.4834,0.5035,-0.5832,12.430106,-98.496086,163.84384,180.30408,-0.1918,-0.7441,-0.1137,0.107,1.026,-1.392,13.499,-12.437,-27.137,2
0.411,-0.485,0.5001,-0.5878,12.350962,-99.30838,162.42088,180.26328,-0.1674,-0.7216,-0.0927,0.318,0.428,-1.421,13.499,-12.437,-27.137,2
0.4012,-0.5009,0.4738,-0.6029,12.928585,-103.230606,155.91037,178.64526,0.2343,-0.7641,0.2285,0.432,-0.16,-1.172,13.499,-12.437,-27.137,2
0.3981,-0.5016,0.4712,-0.6063,13.511906,-103.8054,155.0196,178.4901,0.2084,-0.8095,0.2143,0.276,0.338,-1.013,13.499,-12.437,-27.137,2
0.39,-0.5002,0.4691,-0.6144,14.73713,-104.79966,153.56712,178.46909,0.121,-0.8198,0.0693,0.135,0.902,-0.841,13.499,-12.437,-27.137,2
0.3833,-0.4988,0.4668,-0.6215,15.60417,-105.671104,152.3761,178.3099,0.0834,-0.8652,-0.0039,0.229,0.582,-0.739,6.899,-15.137,-22.037,2
0.3808,-0.4987,0.4648,-0.6245,15.937314,-106.11245,151.78844,178.09146,0.0913,-0.894,0.0122,0.292,0.398,-0.755,6.899,-15.137,-22.037,2
0.3769,-0.4994,0.4598,-0.6301,16.61322,-107.01592,150.61026,177.4521,0.1376,-0.9936,0.0581,0.384,0.203,-0.849,6.899,-15.137,-22.037,2
0.3698,-0.5016,0.4521,-0.638,17.71261,-108.48605,148.6039,176.92421,0.1767,-1.1342,0.0742,0.204,0.213,-0.828,6.899,-15.137,-22.037,2
0.3595,-0.5048,0.4463,-0.6454,21.073666,-110.043724,146.28998,177.65248,0.2812,-1.3242,0.0961,-0.045,0.315,-0.605,6.899,-15.137,-22.037,2
0.3415,-0.503,0.4486,-0.6549,21.169735,-111.352104,144.19603,180.72008,0.1621,-1.3593,0.0742,-0.348,0.396,-0.184,6.899,-15.137,-22.037,2
0.3381,-0.5052,0.4524,-0.6523,21.191,-111.18935,143.77133,182.8769,0.2036,-1.2514,0.0043,-0.398,-0.162,-0.109,2.699,-18.887,-18.587,2
0.3373,-0.5072,0.4522,-0.6513,21.141449,-111.266624,143.41957,183.48157,0.267,-1.1264,0.0502,-0.282,-0.311,-0.246,2.699,-18.887,-18.587,2
0.337,-0.5114,0.4503,-0.6496,20.94395,-111.49433,142.75731,184.11627,0.2709,-0.9189,0.1562,-0.109,-0.449,-0.271,2.699,-18.887,-18.587,2
0.3376,-0.513,0.4495,-0.6486,20.295122,-111.531784,142.59814,184.21379,0.2221,-0.8862,0.1464,-0.064,-0.445,-0.124,2.699,-18.887,-18.587,2
0.3414,-0.5161,0.4491,-0.6443,17.790976,-111.25127,142.74742,184.25285,0.125,-0.8823,0.0151,-0.094,-0.726,0.352,2.699,-18.887,-18.587,2
0.3576,-0.5248,0.448,-0.6292,16.672567,-110.00741,144.0364,183.52419,0.2158,-0.9819,-0.1894,0.129,-1.797,0.818,2.699,-18.887,-18.587,2
0.3652,-0.5289,0.4461,-0.6226,15.523829,-109.55029,144.57913,182.95355,0.2797,-1.0039,-0.2011,0.245,-2.053,0.869,2.699,-18.887,-18.587,2
0.3733,-0.5331,0.4438,-0.6159,13.279683,-109.08706,145.17595,182.27385,0.3471,-0.9965,-0.163,0.328,-2.177,0.907,2.699,-18.887,-18.587,2
0.3898,-0.5399,0.4394,-0.6028,12.225059,-108.05032,146.6872,180.75081,0.455,-1.0083,-0.0283,0.334,-1.986,1.071,2.699,-18.887,-18.587,2
0.4045,-0.5427,0.4393,-0.5906,10.363008,-106.66311,148.85205,179.84267,0.498,-1.0063,0.1191,0.093,-1.339,1.337,2.699,-18.887,-18.587,2
0.4104,-0.5422,0.4413,-0.5854,9.639916,-105.874825,150.13814,179.69228,0.4809,-0.978,0.1567,-0.013,-0.885,1.419,2.699,-18.887,-18.587,2
0.415,-0.5404,0.4444,-0.5814,9.018056,-105.093414,151.46301,179.65063,0.4526,-0.9189,0.1518,-0.123,-0.404,1.493,2.699,-18.887,-18.587,2
0.4188,-0.5377,0.4485,-0.578,8.461006,-104.2833,152.86307,179.7237,0.3955,-0.8691,0.1186,-0.189,-0.064,1.516,2.699,-18.887,-18.587,2
0.4223,-0.5345,0.4531,-0.5748,7.93773,-103.44497,154.3346,179.8339,0.3149,-0.8291,0.0859,-0.172,0.099,1.504,2.699,-18.887,-18.587,2
0.43,-0.5281,0.4609,-0.5689,6.870429,-101.84284,157.26323,179.6465,0.1821,-0.7744,0.0419,0.015,-0.029,1.423,4.499,-30.287,-20.087,2
0.4345,-0.5255,0.4636,-0.5657,6.283092,-101.09584,158.665,179.38269,0.1523,-0.7534,0.0097,0.098,-0.227,1.349,4.499,-30.287,-20.087,2
0.4394,-0.5235,0.4653,-0.5623,5.6142826,-100.40657,159.97467,179.02357,0.124,-0.7495,-0.0151,0.191,-0.447,1.269,4.499,-30.287,-20.087,2
0.445,-0.5221,0.466,-0.5587,4.8537483,-99.75474,161.22862,178.53093,0.1342,-0.7294,-0.038,0.298,-0.706,1.186,4.499,-30.287,-20.087,2
0.4512,-0.5212,0.4656,-0.5547,4.0347123,-99.13422,162.42592,177.92577,0.1396,-0.7177,-0.0302,0.408,-0.966,1.12,4.499,-30.287,-20.087,2
0.4579,-0.5208,0.4644,-0.5506,3.2211988,-98.54568,163.55548,177.23631,0.1655,-0.7099,-0.0268,0.497,-1.148,1.056,4.499,-30.287,-20.087,2
0.4648,-0.5206,0.4628,-0.5465,2.4866984,-97.971535,164.64194,176.51729,0.1953,-0.7065,-0.0244,0.567,-1.235,1.028,4.499,-30.287,-20.087,2
0.4786,-0.5192,0.4602,-0.5379,2.0033169,-96.69241,167.00821,175.19318,0.2338,-0.7207,-0.0214,0.521,-1.109,1.168,4.499,-30.287,-20.087,2
0.4914,-0.5149,0.4609,-0.5298,5.64174,-95.14041,169.864,174.1918,0.2768,-0.7602,-0.0361,0.462,-0.647,1.413,4.499,-30.287,-20.087,2
0.5107,-0.4977,0.4729,-0.5174,6.512829,-91.57705,176.53198,173.17825,0.2036,-0.9018,-0.0493,0.199,0.344,1.699,4.499,-30.287,-20.087,2
0.5157,-0.4773,0.4948,-0.5111,9.656181,-88.585754,182.4386,173.85733,0.1503,-1.0292,-0.0551,-0.127,1.053,1.227,4.499,-30.287,-20.087,2
0.5147,-0.4667,0.5071,-0.5098,11.282693,-87.31135,185.03636,174.35681,0.0859,-1.1982,-0.0551,-0.213,1.273,1.143,3.299,25.199,-19.037,2
0.5133,-0.4612,0.5134,-0.5098,12.98319,-86.74229,186.21388,174.59026,0.0175,-1.2841,-0.0444,-0.219,1.381,1.04,3.299,25.199,-19.037,2
0.5,-0.4628,0.5228,-0.5122,9.312865,-87.27403,185.44287,176.90273,0.1425,-1.4775,0.1015,-0.397,-0.527,-0.606,3.299,25.199,-19.037,2
0.4723,-0.4837,0.5071,-0.5344,8.3112335,-92.242546,175.72472,178.30283,0.1962,-1.0976,0.1376,-0.057,-0.085,-0.637,3.299,25.199,-19.037,2
0.4723,-0.4837,0.5071,-0.5344,8.104912,-92.242546,175.72472,178.30283,0.1962,-1.0976,0.1376,-0.057,-0.085,-0.637,3.299,25.199,-19.037,2
0.4694,-0.4883,0.505,-0.5348,7.7883916,-92.80935,174.55098,178.92885,0.2348,-1.1352,0.0659,-0.277,-0.202,-0.51,-4.65,23.249,-15.437,2
0.4677,-0.4905,0.5041,-0.5351,7.6183357,-93.09752,173.94817,179.27174,0.3037,-1.1235,0.0205,-0.256,-0.125,-0.529,-4.65,23.249,-15.437,2
0.4661,-0.492,0.5027,-0.5364,7.220989,-93.42931,173.2906,179.34467,0.3691,-1.1162,0.0078,-0.015,-0.008,-0.6,-4.65,23.249,-15.437,2
0.46,-0.4934,0.497,-0.5456,7.441414,-94.726036,170.88867,178.5618,0.4189,-1.0087,0.1938,0.174,0.51,-0.864,-4.65,23.249,-15.437,2
0.4488,-0.4949,0.4963,-0.5542,8.363563,-95.987206,168.42752,179.20505,0.2446,-0.9594,0.1347,-0.278,0.984,-1.166,-4.65,23.249,-15.437,2
0.4349,-0.4951,0.4957,-0.5655,9.616251,-97.47458,165.57639,179.86432,0.1748,-0.8549,0.0449,-0.055,1.311,-1.369,-4.65,23.249,-15.437,2
0.4236,-0.4964,0.491,-0.577,10.26037,-99.13981,162.59296,179.81339,0.0986,-0.748,-0.0708,0.319,0.665,-1.509,-4.65,23.249,-15.437,2
0.4198,-0.4983,0.4867,-0.5817,14.450176,-99.99674,161.12375,179.53535,0.103,-0.7202,-0.0405,0.435,0.257,-1.486,-4.65,23.249,-15.437,2
0.3802,-0.4995,0.4703,-0.6201,16.460384,-105.56617,152.20023,179.73456,0.1318,-0.791,0.0327,-0.029,1.636,-0.88,-13.05,19.949,-11.237,2
0.374,-0.4963,0.4712,-0.6258,17.458115,-106.02618,151.62732,179.939,0.0966,-0.8227,0.0268,0.035,1.687,-0.836,-13.05,19.949,-11.237,2
0.3679,-0.4929,0.472,-0.6314,18.391392,-106.472305,151.10818,180.11414,0.0385,-0.8588,0.0302,0.087,1.665,-0.796,-13.05,19.949,-11.237,2
0.3623,-0.4897,0.4725,-0.6368,19.206924,-106.9087,150.63321,180.21677,0.0039,-0.8881,0.0258,0.117,1.551,-0.789,-13.05,19.949,-11.237,2
0.3573,-0.4869,0.473,-0.6413,19.890678,-107.27856,150.23015,180.38063,-0.0356,-0.9355,0.017,0.114,1.337,-0.791,-13.05,19.949,-11.237,2
0.353,-0.485,0.4729,-0.6452,20.435776,-107.65743,149.79121,180.5268,-0.0546,-0.9667,0.0288,0.121,1.057,-0.803,-13.05,19.949,-11.237,2
0.3495,-0.4839,0.4722,-0.6485,20.891155,-108.03632,149.33937,180.6132,-0.0488,-0.9956,0.038,0.159,0.775,-0.817,-13.05,19.949,-11.237,2
0.3439,-0.4837,0.4697,-0.6534,21.506855,-108.78667,148.35251,180.84184,0.0019,-1.0502,0.0488,0.149,0.328,-0.785,-13.05,19.949,-11.237,2
0.3417,-0.4847,0.4677,-0.6553,21.678408,-109.199104,147.76807,180.94887,0.0317,-1.1147,0.0463,0.147,0.126,-0.728,-13.05,19.949,-11.237,2
0.3401,-0.4861,0.4657,-0.6565,21.819561,-109.556725,147.22908,181.06859,0.0625,-1.1738,0.04,0.129,-0.049,-0.637,-13.05,19.949,-11.237,2
0.3371,-0.493,0.4595,-0.6573,21.901833,-110.50017,145.5549,181.74908,0.2299,-1.2729,0.1113,-0.021,-0.245,-0.339,-13.05,19.949,-11.237,2
0.3361,-0.4941,0.4588,-0.6575,22.058302,-110.659515,145.23999,182.0217,0.2641,-1.2504,0.145,-0.071,-0.094,-0.323,-13.05,19.949,-11.237,2
0.3346,-0.4946,0.4587,-0.6579,22.294836,-110.78604,144.97229,182.39543,0.2841,-1.2187,0.1782,-0.124,0.108,-0.291,-13.05,19.949,-11.237,2
0.3327,-0.4943,0.4592,-0.6587,22.589384,-110.87705,144.78658,182.79091,0.2788,-1.1875,0.2006,-0.161,0.348,-0.223,-13.05,19.949,-11.237,2
0.3306,-0.4931,0.4605,-0.6598,22.830664,-110.89682,144.73529,183.18802,0.2558,-1.2265,0.1909,-0.203,0.55,-0.12,-19.2,14.699,-8.687,2
0.3288,-0.4918,0.4623,-0.6604,22.852041,-110.82883,144.77356,183.6376,0.1733,-1.3818,0.0937,-0.285,0.534,0.026,-19.2,14.699,-8.687,2
0.3284,-0.4911,0.4644,-0.6597,22.48146,-110.61576,144.95268,184.04388,0.0844,-1.4985,0.0292,-0.359,0.214,0.271,-19.2,14.699,-8.687,2
0.33,-0.4925,0.4665,-0.6563,20.000793,-110.22863,145.16653,184.62024,0.0288,-1.312,0.0107,-0.223,-0.415,0.174,-19.2,14.699,-8.687,2
0.3437,-0.513,0.453,-0.6428,17.69987,-110.62902,143.72253,184.05927,0.3896,-0.8911,0.1601,0.205,-1.491,0.024,-19.2,14.699,-8.687,2
0.4016,-0.5289,0.4439,-0.6015,11.022422,-106.438644,150.06071,177.83089,0.4438,-0.9897,-0.0136,0.205,-1.136,1.201,-19.2,14.699,-8.687,2
0.4074,-0.5286,0.4451,-0.5969,10.215545,-105.74351,151.18088,177.51486,0.4306,-0.9829,0.0322,0.103,-0.917,1.317,-19.2,14.699,-8.687,2
0.4128,-0.5277,0.4471,-0.5924,9.488481,-104.99758,152.40149,177.33669,0.4125,-0.9458,0.0722,-0.009,-0.69,1.419,-30.6,14.249,-1.187,2
0.4254,-0.5217,0.4576,-0.5807,7.897048,-102.63403,156.39253,177.56393,0.3081,-0.8476,0.0888,-0.239,-0.109,1.444,-30.6,14.249,-1.187,2
0.4389,-0.5126,0.4715,-0.5675,6.436972,-99.76731,161.47037,177.96082,0.1601,-0.7377,0.0024,-0.069,-0.205,1.185,-30.6,14.249,-1.187,2
0.443,-0.511,0.4734,-0.5641,5.966811,-99.132576,162.64009,177.82243,0.1459,-0.7216,-0.019,0.023,-0.412,1.147,-30.6,14.249,-1.187,2
0.4477,-0.51,0.4746,-0.5604,5.4323225,-98.51832,163.77734,177.61928,0.1367,-0.7202,-0.0346,0.097,-0.625,1.111,-30.6,14.249,-1.187,2
0.4529,-0.5094,0.475,-0.5564,4.871976,-97.92547,164.88158,177.33257,0.144,-0.729,-0.0522,0.154,-0.82,1.08,-30.6,14.249,-1.187,2
0.4585,-0.5091,0.4749,-0.5521,4.3522553,-97.33578,165.9794,177.01164,0.1567,-0.7509,-0.0703,0.201,-0.985,1.062,-30.6,14.249,-1.187,2
0.4643,-0.509,0.4746,-0.5477,3.715109,-96.748795,167.06955,176.69286,0.1708,-0.7646,-0.0615,0.231,-1.048,1.049,-30.6,14.249,-1.187,2
0.4757,-0.5078,0.474,-0.5394,3.733196,-95.551895,169.30284,175.96262,0.2153,-0.7934,-0.0615,0.302,-0.892,1.089,-30.6,14.249,-1.187,2
0.4861,-0.5046,0.4754,-0.5318,4.457192,-94.22387,171.79024,175.38681,0.2509,-0.8139,-0.0444,0.218,-0.574,1.212,-30.6,14.249,-1.187,2
0.4942,-0.4995,0.48,-0.5251,8.5987425,-92.80635,174.47893,175.23582,0.2485,-0.8666,-0.0292,0.072,-0.112,1.349,-30.6,14.249,-1.187,2
0.5008,-0.4759,0.5072,-0.515,10.015899,-89.00144,181.98001,176.27171,0.1098,-1.0419,-0.0312,-0.235,1.005,0.982,29.686,19.649,2.563,2
0.4999,-0.4716,0.5124,-0.5147,10.697225,-88.504814,182.98561,176.50137,0.0747,-1.1152,-0.0488,-0.228,1.057,0.886,29.686,19.649,2.563,2
0.4988,-0.4674,0.5174,-0.5147,11.323941,-88.0522,183.90396,176.6953,0.039,-1.1738,-0.0488,-0.199,1.081,0.814,29.686,19.649,2.563,2
0.4944,-0.4557,0.5298,-0.5167,12.409491,-87.0629,185.92648,176.93983,-0.0605,-1.2778,-0.0234,-0.03,0.481,0.1,29.686,19.649,2.563,2
0.4934,-0.4558,0.5299,-0.5175,12.263903,-87.16758,185.72787,176.98286,-0.0209,-1.2695,0.0185,-0.033,0.194,-0.175,29.686,19.649,2.563,2
0.4685,-0.479,0.5167,-0.5328,9.162226,-91.5376,177.00998,179.50122,0.1684,-0.916,0.1347,0.04,0.255,-1.598,26.986,24.449,4.513,2
0.4602,-0.4868,0.5044,-0.5446,7.7845006,-93.856895,172.575,178.75066,0.2402,-0.7827,0.1342,0.491,-0.135,-1.171,26.986,24.449,4.513,2
0.4598,-0.4887,0.5005,-0.5468,7.3825307,-94.3426,171.68723,178.30716,0.205,-0.8364,0.1176,0.444,-0.329,-0.85,26.986,24.449,4.513,2
0.46,-0.4908,0.4973,-0.5478,7.0944743,-94.692,171.03745,178.02425,0.2241,-0.9262,0.1,0.239,-0.467,-0.557,26.986,24.449,4.513,2
0.4601,-0.4927,0.4952,-0.5479,6.9022956,-94.919556,170.59464,177.96785,0.2944,-1.0258,0.0498,0.07,-0.405,-0.323,26.986,24.449,4.513,2
0.461,-0.4939,0.4915,-0.5494,6.3943944,-95.23313,170.05165,177.34534,0.3798,-1.0429,-0.0336,0.402,-0.189,-0.298,26.986,24.449,4.513,2
0.461,-0.4946,0.4885,-0.5513,6.3109307,-95.551384,169.49579,176.8164,0.4277,-1.0107,0.0249,0.472,-0.169,-0.424,26.986,24.449,4.513,2
0.4567,-0.4955,0.4857,-0.5566,7.390756,-96.317726,168.11101,176.51164,0.3881,-1.0097,0.1206,0.025,0.505,-0.722,26.986,24.449,4.513,2
0.4455,-0.4966,0.4845,-0.5656,8.138864,-97.62817,165.6987,176.99258,0.2885,-0.9453,0.1274,-0.168,1.019,-1.22,26.986,24.449,4.513,2
0.4311,-0.4968,0.4839,-0.5771,9.760654,-99.17993,162.88226,177.71225,0.187,-0.8818,0.0502,-0.139,1.295,-1.421,26.986,24.449,4.513,2
0.4243,-0.4971,0.4827,-0.5828,10.462344,-99.99194,161.4433,177.96605,0.1357,-0.8598,0.0014,-0.012,1.127,-1.484,26.986,24.449,4.513,2
0.4135,-0.4986,0.4776,-0.5934,11.4759245,-101.61984,158.69736,177.9215,0.0747,-0.8374,0.0024,0.286,0.627,-1.427,26.986,24.449,4.513,2
0.3983,-0.5082,0.4568,-0.6117,19.601347,-105.3361,152.79596,176.4152,0.2875,-0.7705,0.1821,0.387,0.121,-1.229,17.986,22.649,6.164,2
0.3532,-0.5055,0.4426,-0.6509,19.852724,-111.00039,145.04045,177.79755,0.2622,-1.2153,0.1381,-0.225,0.137,-0.112,8.536,19.349,4.813,2
0.3517,-0.5054,0.4437,-0.651,20.045902,-111.01446,144.9349,178.31618,0.2529,-1.2241,0.1538,-0.275,0.256,-0.084,8.536,19.349,4.813,2
0.348,-0.5043,0.4463,-0.6521,20.503363,-111.05727,144.75562,179.33394,0.2309,-1.1669,0.164,-0.287,0.428,-0.112,8.536,19.349,4.813,2
0.346,-0.5036,0.4478,-0.6527,20.696724,-111.065506,144.67715,179.88474,0.2221,-1.1513,0.184,-0.29,0.459,-0.087,8.536,19.349,4.813,2
0.3436,-0.5025,0.4512,-0.6525,20.558132,-110.89241,144.73492,180.90099,0.1416,-1.3422,0.0791,-0.354,0.186,0.159,8.536,19.349,4.813,2
0.3441,-0.5026,0.4532,-0.6506,20.25813,-110.6164,144.95137,181.38258,0.1069,-1.4467,0.0229,-0.416,-0.117,0.4,8.536,19.349,4.813,2
0.3455,-0.5035,0.4549,-0.6481,19.90157,-110.31204,145.17844,181.79915,0.0991,-1.4165,-0.0258,-0.369,-0.399,0.459,8.536,19.349,4.813,2
0.3473,-0.5053,0.4553,-0.6455,19.492048,-110.11476,145.26414,182.0549,0.1362,-1.3388,-0.0395,-0.241,-0.647,0.308,8.536,19.349,4.813,2
0.3495,-0.5078,0.4545,-0.6428,19.016693,-110.00979,145.23898,182.13893,0.2001,-1.249,-0.0361,-0.092,-0.881,0.152,8.536,19.349,4.813,2
0.3664,-0.5244,0.4416,-0.6289,14.790571,-109.95741,144.81143,180.39886,0.291,-0.8623,0.1459,0.181,-1.039,0.288,8.536,19.349,4.813,2
0.388,-0.5326,0.4388,-0.6108,12.750651,-108.27876,147.00922,178.90266,0.2822,-0.9418,-0.1718,0.215,-1.574,0.999,8.536,19.349,4.813,2
0.3956,-0.5351,0.4376,-0.6045,11.642506,-107.6796,147.85898,178.36009,0.3247,-0.9775,-0.2133,0.31,-1.756,1.114,4.186,26.999,11.113,2
0.4037,-0.5374,0.4363,-0.598,10.530801,-107.03023,148.82388,177.74791,0.3876,-0.9941,-0.2031,0.383,-1.832,1.228,4.186,26.999,11.113,2
0.4495,-0.5304,0.4497,-0.5606,4.5530624,-100.97859,159.10573,176.18373,0.4355,-0.9428,0.1513,-0.254,0.208,1.694,4.186,26.999,11.113,2
0.4667,-0.5053,0.4799,-0.5444,4.513349,-95.912384,168.64546,177.03993,0.0454,-0.8339,-0.0419,0.195,-0.424,0.95,4.186,26.999,11.113,2
0.4716,-0.5046,0.4793,-0.5413,4.189606,-95.43506,169.5568,176.59918,0.0781,-0.8364,-0.039,0.354,-0.792,0.856,4.186,26.999,11.113,2
0.4998,-0.5031,0.4718,-0.5237,4.860784,-93.00776,173.95575,174.0906,0.2705,-0.7885,-0.0102,0.398,-0.838,0.93,16.186,-20.387,6.914,2
0.5088,-0.4998,0.4724,-0.5177,5.9555655,-91.87314,176.00218,173.51704,0.267,-0.81,-0.0029,0.286,-0.439,1.007,16.186,-20.387,6.914,2
0.518,-0.4557,0.5157,-0.5078,12.508683,-85.888115,187.76888,173.99231,-0.0063,-1.1577,-0.0385,-0.073,0.887,0.541,16.186,-20.387,6.914,2
0.5043,-0.4527,0.5251,-0.5146,12.529771,-86.43942,187.02135,175.28969,0.0952,-1.3471,0.0629,-0.326,0.539,-0.344,28.036,-6.437,-2.837,2
0.4973,-0.4521,0.5295,-0.5174,12.629516,-86.743286,186.53535,176.11081,-0.0166,-1.3925,0.0761,-0.378,0.861,-0.31,28.036,-6.437,-2.837,2
0.488,-0.4537,0.5323,-0.522,12.328068,-87.487404,185.14255,177.09314,-0.1245,-1.2709,0.0444,-0.431,0.658,-0.823,28.036,-6.437,-2.837,2
0.484,-0.4567,0.5316,-0.5239,11.91205,-88.036545,184.05942,177.60902,-0.0766,-1.1811,0.0629,-0.39,0.216,-1.025,28.036,-6.437,-2.837,2
0.4764,-0.4638,0.5276,-0.5286,11.018397,-89.37014,181.39934,178.38455,0.1025,-1.0039,0.1274,-0.243,0.051,-1.231,28.036,-6.437,-2.837,2
0.47,-0.4704,0.5219,-0.5341,10.093825,-90.75277,178.65355,178.7165,0.1479,-0.894,0.1445,-0.013,-0.06,-1.18,28.036,-6.437,-2.837,2
0.4677,-0.4736,0.5188,-0.5363,9.607268,-91.37034,177.43211,178.79662,0.1469,-0.8696,0.1347,0.047,-0.186,-1.118,28.036,-6.437,-2.837,2
0.4661,-0.4769,0.5154,-0.5381,9.146322,-91.94837,176.29494,178.81015,0.1508,-0.8842,0.1166,0.056,-0.343,-0.988,28.036,-6.437,-2.837,2
0.4653,-0.4861,0.506,-0.5393,7.748813,-93.12478,173.9723,178.79488,0.2666,-1.0463,-0.039,0.154,-0.66,-0.462,28.036,-6.437,-2.837,2
0.4664,-0.4882,0.5026,-0.5397,7.352192,-93.40095,173.4603,178.45313,0.3217,-1.0434,-0.0458,0.343,-0.642,-0.366,28.036,-6.437,-2.837,2
0.4584,-0.4876,0.4977,-0.5515,8.277529,-94.79803,170.93561,177.46521,0.3466,-1.0546,0.1108,-0.045,1.142,-0.686,19.186,-7.487,3.013,2
0.4083,-0.481,0.4953,-0.5971,13.231774,-100.120705,161.55132,178.45471,0.104,-0.9155,0.0644,0.365,0.221,-0.921,19.186,-7.487,3.013,2
0.3999,-0.4809,0.4892,-0.6078,14.5549555,-101.60478,159.30312,177.76064,0.144,-0.9433,0.1098,0.273,0.655,-0.827,19.186,-7.487,3.013,2
0.3963,-0.4798,0.4882,-0.6118,15.154365,-102.05167,158.66917,177.61864,0.1264,-0.9482,0.1005,0.239,0.82,-0.798,19.186,-7.487,3.013,2
0.3924,-0.4783,0.4878,-0.6157,17.19111,-102.45232,158.112,177.57771,0.0947,-0.9394,0.0805,0.189,0.929,-0.743,19.186,-7.487,3.013,2
0.3786,-0.4745,0.4857,-0.6288,17.465324,-103.94823,156.0062,177.7042,-0.0244,-0.9062,0.0175,0.142,0.476,-0.745,10.636,-11.537,-2.237,2
0.3736,-0.4771,0.4805,-0.6339,17.702665,-104.993484,154.41722,177.65611,0.0429,-0.9326,0.0527,0.195,-0.092,-0.647,10.636,-11.537,-2.237,2
0.3735,-0.4824,0.4735,-0.6351,17.312744,-105.78305,153.16127,177.23001,0.1445,-0.9389,0.0844,0.217,-0.47,-0.412,10.636,-11.537,-2.237,2
0.3967,-0.4909,0.4732,-0.6144,13.548773,-103.6831,155.9584,176.56331,0.2592,-1.1157,0.1157,0.003,-0.465,0.344,8.386,-9.587,-3.287,2
0.401,-0.4921,0.4729,-0.6109,12.881579,-103.30831,156.51668,176.34776,0.1918,-1.0361,0.1411,0.023,-0.487,0.331,8.386,-9.587,-3.287,2
0.4033,-0.4928,0.4724,-0.6092,2.7846565,-103.14112,156.77396,176.17244,0.1733,-0.999,0.1386,0.05,-0.534,0.291,8.386,-9.587,-3.287,2
0.4709,-0.5105,0.4532,-0.5586,1.9734169,-98.09627,164.68784,171.51485,0.3496,-1.0229,-0.0649,0.162,-0.468,0.88,18.286,1.063,-0.437,2
0.4847,-0.5074,0.4589,-0.5448,1.9861652,-95.99177,168.40205,171.98344,0.2983,-0.9707,0.0332,-0.093,-0.29,0.582,18.286,1.063,-0.437,2
0.4901,-0.5081,0.4595,-0.5389,2.283837,-95.34124,169.53044,172.2319,0.2915,-0.934,0.0229,-0.029,-0.418,0.43,18.286,1.063,-0.437,2
0.4994,-0.5111,0.4559,-0.5304,2.6634352,-94.6389,170.64772,172.02556,0.3398,-0.9321,0.0263,0.07,-0.387,0.287,18.286,1.063,-0.437,2
0.5022,-0.5117,0.4552,-0.5278,2.9214952,-94.38832,171.06421,171.99748,0.3188,-0.8842,-0.0078,0.036,-0.154,0.216,18.286,1.063,-0.437,2
0.5026,-0.5118,0.4552,-0.5273,3.168194,-94.34248,171.14479,172.02571,0.2963,-0.8769,-0.0195,0.02,-0.088,0.182,18.286,1.063,-0.437,2
0.5029,-0.5108,0.4574,-0.526,3.310887,-94.092186,171.65077,172.35277,0.2783,-0.9575,-0.0673,-0.05,0.141,0.274,28.336,9.914,-6.587,2
0.5031,-0.5086,0.461,-0.5248,3.7473383,-93.71094,172.42598,172.73448,0.246,-1.0878,-0.0942,-0.111,0.261,0.43,28.336,9.914,-6.587,2
0.5032,-0.5072,0.4631,-0.5243,3.8829951,-93.49143,172.87181,172.91716,0.2011,-1.0952,-0.0878,-0.136,0.308,0.417,28.336,9.914,-6.587,2
0.5026,-0.5063,0.465,-0.5241,3.9490228,-93.37421,173.13153,173.16847,0.185,-1.0815,-0.0756,-0.136,0.339,0.281,28.336,9.914,-6.587,2
0.5007,-0.5051,0.4675,-0.5248,3.9201493,-93.34068,173.25595,173.50322,0.2001,-1.0917,-0.0185,-0.163,0.314,-0.004,28.336,9.914,-6.587,2
0.499,-0.5053,0.4685,-0.5254,3.8226151,-93.44697,173.08917,173.7832,0.1982,-1.0585,0.0346,-0.228,0.318,-0.116,28.336,9.914,-6.587,2
0.4942,-0.5063,0.47,-0.5275,3.63627,-93.85657,172.37915,174.40475,0.1899,-0.9931,0.1054,-0.331,0.386,-0.332,28.336,9.914,-6.587,2
0.4914,-0.507,0.4709,-0.5287,3.5690882,-94.097404,171.95207,174.79454,0.1718,-0.997,0.1127,-0.365,0.403,-0.363,28.336,9.914,-6.587,2
0.4862,-0.5087,0.4723,-0.5306,3.5417511,-94.56017,171.10506,175.58304,0.1401,-0.9687,0.1147,-0.365,0.293,-0.358,28.336,9.914,-6.587,2
0.484,-0.5097,0.4726,-0.5314,3.476967,-94.78564,170.6792,175.91661,0.124,-0.9545,0.1083,-0.321,0.196,-0.373,28.336,9.914,-6.587,2
0.4807,-0.5121,0.4718,-0.5328,3.311054,-95.25254,169.77908,176.33664,0.1528,-0.9453,0.0849,-0.157,0.047,-0.377,28.336,9.914,-6.587,2
0.4745,-0.515,0.4688,-0.5382,3.1494625,-96.26386,167.86378,176.40987,0.1289,-0.9809,-0.0029,0.026,0.244,-0.315,29.686,9.013,-3.737,2
0.4728,-0.5151,0.4688,-0.5397,3.276523,-96.45682,167.50674,176.46208,0.123,-0.9819,-0.0083,-0.027,0.316,-0.341,29.686,9.013,-3.737,2
0.4662,-0.5155,0.4697,-0.5442,3.8561094,-97.08486,166.32733,176.97195,0.142,-1.0156,-0.0029,-0.139,0.42,-0.377,29.686,9.013,-3.737,2
0.4638,-0.5155,0.47,-0.546,4.1074195,-97.31434,165.89867,177.12279,0.1455,-1.0175,0.0151,-0.121,0.448,-0.396,29.686,9.013,-3.737,2
0.4613,-0.5155,0.4704,-0.5478,4.4248033,-97.543816,165.46735,177.30544,0.1552,-1.0068,0.0361,-0.138,0.482,-0.409,29.686,9.013,-3.737,2
0.4584,-0.5154,0.471,-0.5497,4.8030176,-97.785866,165.00806,177.55211,0.1523,-1.019,0.0385,-0.175,0.555,-0.426,29.686,9.013,-3.737,2
0.4487,-0.514,0.4738,-0.5565,6.070792,-98.50726,163.64233,178.34015,0.1098,-1.04,0.0429,-0.176,0.722,-0.476,29.686,9.013,-3.737,2
0.4454,-0.5135,0.4746,-0.559,6.4503617,-98.76823,163.15125,178.57411,0.101,-1.0307,0.0454,-0.168,0.711,-0.491,29.686,9.013,-3.737,2
0.4424,-0.5132,0.4751,-0.5612,6.7707677,-99.0227,162.6699,178.7891,0.0942,-1.0415,0.0512,-0.131,0.612,-0.496,29.686,9.013,-3.737,2
0.4374,-0.5132,0.475,-0.5652,7.2853065,-99.547356,161.69424,179.05225,0.1064,-1.0307,0.0756,-0.075,0.394,-0.495,29.686,9.013,-3.737,2
0.4354,-0.5134,0.4747,-0.5668,7.4896383,-99.78343,161.25623,179.15111,0.1162,-1.0327,0.0917,-0.06,0.322,-0.455,29.686,9.013,-3.737,2
0.7453,-0.5927,0.2931,-0.0846,0.04255546,-71.26602,213.30807,199.5796,-0.3359,-0.9443,0.1059,0.011,0.038,-0.004,14.099,-10.037,14.249,3
0.7453,-0.5926,0.2934,-0.0848,0.086500764,-71.252686,213.3274,199.57425,-0.3505,-0.9414,0.1044,0.018,0.073,0.003,14.099,-10.037,14.249,3
0.7451,-0.5923,0.2943,-0.0852,0.080893554,-71.2142,213.41513,199.59576,-0.3745,-0.9306,0.0942,0.009,0.001,0.003,14.999,-9.887,15.149,3
0.7452,-0.5925,0.2937,-0.0843,0.074247375,-71.213264,213.43375,199.66525,-0.3662,-0.9633,0.104,-0.021,-0.096,0.005,14.999,-9.887,15.149,3
0.7453,-0.5926,0.2935,-0.0841,0.0742689,-71.21671,213.42548,199.67323,-0.3422,-0.9677,0.1035,-0.017,-0.061,0.0,14.999,-9.887,15.149,3
0.7452,-0.5927,0.2935,-0.0841,0.0742689,-71.23019,213.42679,199.68427,-0.3525,-0.9677,0.1132,-0.007,-0.012,-0.001,14.999,-9.887,15.149,3
0.7452,-0.5927,0.2935,-0.0841,0.06582521,-71.23019,213.42679,199.68427,-0.352,-0.9575,0.1191,0.001,0.015,-0.01,14.999,-9.887,15.149,3
0.7452,-0.5927,0.2935,-0.0842,0.058403615,-71.234665,213.41476,199.67134,-0.3613,-0.9526,0.1196,0.003,0.01,-0.012,14.999,-9.887,15.149,3
0.7452,-0.5927,0.2935,-0.0843,0.06758616,-71.239136,213.40274,199.65842,-0.3574,-0.9526,0.1201,0.009,0.004,-0.014,14.999,-9.887,15.149,3
0.7451,-0.5927,0.2937,-0.0843,0.090163425,-71.234985,213.43347,199.6814,-0.374,-0.9458,0.1132,0.0,0.019,0.0,14.999,-9.887,15.149,3
0.7452,-0.5926,0.2937,-0.0841,0.08721235,-71.21256,213.4562,199.6962,-0.3701,-0.935,0.1074,0.01,-0.039,0.003,14.999,-9.887,15.149,3
0.7453,-0.5927,0.2934,-0.0839,0.115169145,-71.2207,213.434,199.69566,-0.3637,-0.9335,0.0971,0.011,-0.078,-0.002,14.999,-9.887,15.149,3
0.7454,-0.5927,0.2931,-0.0836,0.1615798,-71.2161,213.42538,199.70296,-0.3598,-0.9399,0.102,0.001,-0.11,-0.005,14.999,-9.887,15.149,3
0.7455,-0.5928,0.2926,-0.0833,0.21592674,-71.22914,213.38733,199.6983,-0.3549,-0.9443,0.1025,-0.005,-0.12,-0.01,14.999,-9.887,15.149,3
0.7457,-0.5932,0.2917,-0.0827,0.33860648,-71.267044,213.32202,199.70758,-0.3413,-0.9389,0.1054,-0.027,-0.113,-0.023,14.999,-9.887,15.149,3
0.7457,-0.5934,0.2913,-0.0824,0.38249025,-71.28891,213.29924,199.72235,-0.3417,-0.9418,0.0996,-0.037,-0.103,-0.018,14.999,-9.887,15.149,3
0.7457,-0.5936,0.291,-0.0822,0.40043882,-71.310555,213.27838,199.73273,-0.3378,-0.9355,0.1049,-0.022,-0.08,-0.022,14.249,-9.137,14.849,3
0.7455,-0.5937,0.2912,-0.0828,0.2719154,-71.346634,213.23836,199.68906,-0.3437,-0.9482,0.1079,0.021,0.077,-0.013,14.249,-9.137,14.849,3
0.7453,-0.5935,0.2917,-0.0834,0.19615218,-71.34396,213.24474,199.6559,-0.3579,-0.9492,0.0966,0.029,0.068,-0.012,14.249,-9.137,14.849,3
0.7453,-0.5934,0.2919,-0.0836,0.19615218,-71.335266,213.25012,199.64206,-0.3837,-0.9565,0.102,0.024,0.039,-0.02,14.249,-9.137,14.849,3
0.7453,-0.5934,0.2919,-0.0836,0.21743006,-71.335266,213.25012,199.64206,-0.3701,-0.9443,0.102,0.009,-0.003,-0.02,14.249,-9.137,14.849,3
0.7453,-0.5935,0.2917,-0.0836,0.23956059,-71.35287,213.22067,199.63,-0.3652,-0.9458,0.1147,0.001,-0.024,-0.025,14.249,-9.137,14.849,3
0.7453,-0.5936,0.2915,-0.0836,0.2534147,-71.37046,213.19122,199.61797,-0.352,-0.9443,0.1123,-0.007,-0.033,-0.034,14.249,-9.137,14.849,3
0.7452,-0.5937,0.2914,-0.0837,0.24088296,-71.3931,213.1665,199.60744,-0.3466,-0.9311,0.1157,-0.003,0.01,-0.02,14.249,-9.137,14.849,3
0.745,-0.5938,0.2918,-0.084,0.20595096,-71.4065,213.19029,199.6198,-0.3813,-0.9418,0.0942,0.005,0.027,-0.008,14.249,-9.137,14.849,3
0.745,-0.5938,0.2919,-0.0839,0.22976209,-71.39737,213.21631,199.64131,-0.3803,-0.9443,0.0927,0.007,-0.017,0.0,14.249,-9.137,14.849,3
0.7451,-0.5938,0.2917,-0.0837,0.26433197,-71.39256,213.20964,199.64413,-0.3823,-0.9526,0.0908,0.009,-0.055,0.001,14.249,-9.137,14.849,3
0.7456,-0.5941,0.2901,-0.0828,0.4601167,-71.42579,213.07588,199.60907,-0.3354,-0.9653,0.1206,0.003,-0.09,-0.037,13.949,-10.187,14.849,3
0.7456,-0.5942,0.2898,-0.0829,0.40044403,-71.45247,213.02043,199.57538,-0.3251,-0.9628,0.1259,0.006,-0.034,-0.036,13.949,-10.187,14.849,3
0.7455,-0.5941,0.2901,-0.0835,0.21804476,-71.46208,212.99443,199.52425,-0.311,-0.9458,0.1289,0.025,0.099,-0.022,13.949,-10.187,14.849,3
0.7453,-0.5935,0.2914,-0.0849,0.16042095,-71.42467,213.02225,199.43594,-0.3486,-0.9111,0.1171,0.063,0.22,-0.008,13.949,-10.187,14.849,3
0.745,-0.593,0.2928,-0.0859,0.13786283,-71.37847,213.11342,199.41882,-0.3955,-0.9072,0.0864,0.047,0.143,0.004,13.949,-10.187,14.849,3
0.7451,-0.5929,0.2927,-0.0857,0.13799961,-71.36072,213.12238,199.42514,-0.393,-0.9228,0.0844,-0.005,-0.089,-0.027,13.949,-10.187,14.849,3
0.7452,-0.5931,0.2923,-0.0854,0.18761036,-71.37725,213.09671,199.43398,-0.3735,-0.9326,0.0683,-0.006,-0.119,-0.039,13.949,-10.187,14.849,3
0.7453,-0.5933,0.2917,-0.0852,0.25054172,-71.407524,213.03113,199.41267,-0.3593,-0.9418,0.081,0.003,-0.127,-0.05,13.949,-10.187,14.849,3
0.7455,-0.5934,0.2911,-0.0851,0.29663762,-71.4287,212.95226,199.36739,-0.3461,-0.9394,0.0844,0.023,-0.122,-0.061,13.949,-10.187,14.849,3
0.7456,-0.5934,0.2907,-0.0852,0.3194431,-71.44641,212.88159,199.31415,-0.3315,-0.9306,0.1015,0.039,-0.064,-0.064,13.949,-10.187,14.849,3
0.7457,-0.5933,0.2906,-0.0856,0.32210675,-71.45519,212.81825,199.24274,-0.3413,-0.9243,0.1147,0.053,0.037,-0.072,13.949,-10.187,14.849,3
0.7456,-0.5931,0.291,-0.0864,0.37504137,-71.46082,212.78366,199.16919,-0.3403,-0.9213,0.1313,0.061,0.158,-0.08,13.949,-10.187,14.849,3
0.7454,-0.5928,0.2918,-0.0876,0.5060513,-71.46273,212.761,199.079,-0.3583,-0.9223,0.1318,0.069,0.282,-0.076,13.949,-10.187,14.849,3
0.7451,-0.5924,0.293,-0.089,0.6980306,-71.45216,212.7743,198.99806,-0.3911,-0.9184,0.1176,0.079,0.379,-0.072,13.949,-10.187,14.849,3
0.7447,-0.592,0.2943,-0.0905,0.9151347,-71.44685,212.79202,198.91858,-0.4165,-0.9296,0.1049,0.099,0.419,-0.076,13.949,-9.437,14.399,3
0.7444,-0.5915,0.2957,-0.092,1.0890877,-71.42355,212.82254,198.8366,-0.4497,-0.935,0.0937,0.123,0.4,-0.084,13.949,-9.437,14.399,3
0.7442,-0.5907,0.2967,-0.0951,1.2922028,-71.460106,212.60593,198.49182,-0.4946,-0.9248,0.0805,0.04,-0.043,-0.172,13.949,-9.437,14.399,3
0.7443,-0.5909,0.296,-0.0953,1.3020787,-71.5122,212.4778,198.41016,-0.4853,-0.9204,0.0986,0.017,-0.095,-0.193,13.949,-9.437,14.399,3
0.7438,-0.5928,0.2932,-0.0962,1.373544,-71.86273,211.95529,198.17752,-0.455,-0.9038,0.062,-0.082,-0.08,-0.21,13.949,-9.437,14.399,3
0.7422,-0.5987,0.2857,-0.0946,1.7424933,-72.70546,211.03049,198.11674,-0.4746,-0.8906,0.0722,-0.152,-0.419,-0.257,13.949,-9.437,14.399,3
0.7421,-0.6008,0.2818,-0.093,2.0764005,-72.99133,210.64296,198.08662,-0.435,-0.9091,0.0913,-0.171,-0.417,-0.235,13.949,-9.437,14.399,3
0.7416,-0.6033,0.2782,-0.0915,2.506807,-73.32313,210.28773,198.10986,-0.4082,-0.9047,0.0727,-0.236,-0.377,-0.235,13.499,-9.137,15.899,3
0.7412,-0.6048,0.2765,-0.0909,2.7380567,-73.519905,210.10469,198.13045,-0.3901,-0.9028,0.062,-0.259,-0.361,-0.242,13.499,-9.137,15.899,3
0.7407,-0.6062,0.2748,-0.0903,2.968867,-73.71412,209.92566,198.1509,-0.3818,-0.8945,0.0625,-0.268,-0.336,-0.248,13.499,-9.137,15.899,3
0.7402,-0.6076,0.2732,-0.0898,3.2055683,-73.908165,209.74814,198.16635,-0.3754,-0.8891,0.0615,-0.264,-0.318,-0.252,13.499,-9.137,15.899,3
0.7397,-0.609,0.2716,-0.0894,3.4447956,-74.10651,209.5578,198.16753,-0.373,-0.8798,0.0576,-0.251,-0.308,-0.268,13.499,-9.137,15.899,3
0.7392,-0.6104,0.27,-0.089,3.6652591,-74.30492,209.36723,198.16766,-0.3623,-0.8872,0.061,-0.246,-0.297,-0.265,13.499,-9.137,15.899,3
0.7387,-0.6116,0.2685,-0.0887,3.8574157,-74.48664,209.18143,198.1532,-0.3593,-0.9052,0.0664,-0.229,-0.265,-0.246,13.499,-9.137,15.899,3
0.7384,-0.6127,0.2672,-0.0884,4.0525947,-74.639885,209.02127,198.14032,-0.3745,-0.9233,0.0766,-0.192,-0.249,-0.221,13.499,-9.137,15.899,3
0.7381,-0.6137,0.2658,-0.0881,4.2723365,-74.78944,208.84833,198.11234,-0.3627,-0.9731,0.0556,-0.167,-0.26,-0.214,13.499,-9.137,15.899,3
0.7367,-0.6181,0.2597,-0.0868,5.2813554,-75.45016,208.09299,197.9878,-0.2519,-0.9663,0.0585,-0.308,-0.465,-0.34,13.499,-9.137,15.899,3
0.7363,-0.6198,0.257,-0.0868,5.586235,-75.73266,207.68217,197.82542,-0.206,-0.9921,0.1103,-0.256,-0.426,-0.42,13.499,-9.137,15.899,3
0.7354,-0.6218,0.2534,-0.0903,6.0646224,-76.2463,206.68527,197.13632,-0.1289,-0.9643,0.1855,-0.099,0.128,-0.516,13.499,-9.137,15.899,3
0.7335,-0.6233,0.2532,-0.0961,6.14402,-76.7173,205.89635,196.50468,-0.1113,-0.9731,0.1972,-0.106,0.471,-0.442,13.499,-9.137,15.899,3
0.7326,-0.6235,0.2538,-0.0994,6.198761,-76.89006,205.5556,196.17612,-0.1113,-0.9707,0.2055,-0.036,0.562,-0.418,13.499,-9.137,15.899,3
0.7308,-0.6235,0.2563,-0.1063,6.3835497,-77.1596,205.02417,195.59294,-0.1679,-0.9931,0.1811,-0.008,0.709,-0.322,10.349,-8.837,18.299,3
0.7299,-0.6237,0.2572,-0.1094,6.595964,-77.312225,204.7463,195.32283,-0.1679,-1.0336,0.1333,-0.018,0.594,-0.354,10.349,-8.837,18.299,3
0.729,-0.6241,0.2573,-0.1125,6.864309,-77.51477,204.34415,194.97871,-0.1542,-1.0356,0.1098,-0.005,0.461,-0.448,10.349,-8.837,18.299,3
0.7282,-0.6246,0.257,-0.1158,7.2180176,-77.74331,203.8497,194.56326,-0.1157,-1.0483,0.1259,-0.008,0.422,-0.545,10.349,-8.837,18.299,3
0.7271,-0.6253,0.2565,-0.1197,7.5821114,-78.03671,203.23854,194.06917,-0.083,-1.0834,0.1538,-0.051,0.48,-0.644,10.349,-8.837,18.299,3
0.7256,-0.626,0.2569,-0.1242,7.96334,-78.33989,202.67542,193.60942,-0.0522,-1.1342,0.2133,-0.085,0.707,-0.698,10.349,-8.837,18.299,3
0.7237,-0.6264,0.2586,-0.1297,8.351409,-78.62859,202.16943,193.15913,-0.0644,-1.1552,0.2636,-0.036,1.052,-0.671,10.349,-8.837,18.299,3
0.7145,-0.6186,0.2807,-0.1669,11.399048,-79.114044,200.49245,190.5466,-0.2416,-1.0463,0.2539,0.479,2.09,-0.434,10.349,-8.837,18.299,3
0.7129,-0.6153,0.2865,-0.1756,16.367504,-79.060326,200.23659,189.89459,-0.2773,-0.9887,0.2294,0.533,2.167,-0.426,10.349,-8.837,18.299,3
0.7066,-0.5987,0.305,-0.2213,16.796978,-79.20657,197.22136,185.07187,-0.312,-0.8159,0.1904,0.544,0.499,-0.708,10.349,-8.837,18.299,3
0.7071,-0.5973,0.3036,-0.2255,17.230757,-79.26861,196.5237,184.23393,-0.2812,-0.8364,0.2143,0.543,0.349,-0.737,11.099,-8.837,19.049,3
0.7084,-0.5928,0.2993,-0.2385,18.692745,-79.431335,194.412,181.64134,-0.2304,-0.9042,0.2783,0.547,0.47,-0.704,11.099,-8.837,19.049,3
0.7083,-0.5892,0.2989,-0.2482,19.834663,-79.49573,193.25948,180.06046,-0.2451,-0.9433,0.2397,0.501,0.703,-0.666,11.099,-8.837,19.049,3
0.708,-0.5874,0.299,-0.2532,20.451227,-79.53735,192.709,179.2952,-0.2324,-0.9653,0.2373,0.49,0.743,-0.676,11.099,-8.837,19.049,3
0.7057,-0.5811,0.3021,-0.2699,22.50199,-79.656746,191.27553,177.09962,-0.2729,-1.0278,0.2241,0.466,1.1,-0.622,11.099,-8.837,19.049,3
0.7048,-0.5787,0.3037,-0.2756,23.193047,-79.66984,190.8837,176.40343,-0.3222,-1.0268,0.2182,0.48,1.103,-0.625,11.099,-8.837,19.049,3
0.7039,-0.5763,0.3051,-0.2813,23.882328,-79.68762,190.46991,175.68405,-0.3378,-1.0122,0.2304,0.495,1.067,-0.654,11.099,-8.837,19.049,3
0.6978,-0.562,0.3085,-0.319,28.168575,-80.0454,186.99762,170.33331,-0.2626,-0.895,0.2456,0.344,0.523,-0.731,11.099,-8.837,19.049,3
0.6971,-0.5614,0.3076,-0.3225,28.505241,-80.165955,186.47606,169.73853,-0.2387,-0.9042,0.2568,0.253,0.349,-0.689,11.099,-8.837,19.049,3
0.6964,-0.5612,0.3065,-0.3254,28.767923,-80.303635,185.97418,169.2241,-0.2314,-0.9038,0.2626,0.177,0.232,-0.64,8.249,-13.037,18.599,3
0.6958,-0.5613,0.3053,-0.3277,28.955599,-80.441635,185.51483,168.79224,-0.2216,-0.9174,0.248,0.099,0.109,-0.585,8.249,-13.037,18.599,3
0.6952,-0.5619,0.3038,-0.3294,29.06714,-80.60753,185.05276,168.43417,-0.2236,-0.934,0.2314,0.042,-0.037,-0.551,8.249,-13.037,18.599,3
0.6944,-0.5655,0.2966,-0.3315,29.144386,-81.13007,183.57849,167.49538,-0.1748,-1.0302,0.2202,-0.03,-0.451,-0.518,8.249,-13.037,18.599,3
0.6942,-0.5671,0.2937,-0.3317,29.14299,-81.32304,183.05397,167.20438,-0.1518,-1.0888,0.2216,-0.049,-0.5,-0.483,8.249,-13.037,18.599,3
0.6935,-0.5707,0.2884,-0.3318,29.15596,-81.746254,182.06407,166.75131,-0.1093,-1.1928,0.2753,-0.138,-0.446,-0.427,8.249,-13.037,18.599,3
0.6927,-0.5724,0.2867,-0.3319,29.22979,-81.97171,181.67363,166.64491,-0.0971,-1.2548,0.312,-0.211,-0.314,-0.39,8.249,-13.037,18.599,3
0.6915,-0.5741,0.2856,-0.3324,29.34761,-82.23,181.2967,166.57227,-0.083,-1.2895,0.3305,-0.274,-0.135,-0.364,8.249,-13.037,18.599,3
0.6899,-0.5757,0.2853,-0.3332,29.496666,-82.508156,180.9771,166.56898,-0.0844,-1.2988,0.3168,-0.346,0.024,-0.362,8.249,-13.037,18.599,3
0.6859,-0.5793,0.2853,-0.3351,29.74167,-83.15889,180.30751,166.6527,-0.1083,-1.29,0.2475,-0.475,0.108,-0.371,8.249,-13.037,18.599,3
0.6838,-0.5814,0.2854,-0.3356,29.795326,-83.50423,180.00763,166.79462,-0.1103,-1.2924,0.207,-0.521,0.052,-0.344,8.249,-13.037,18.599,3
0.6819,-0.5838,0.2851,-0.3357,29.791813,-83.853874,179.68817,166.95178,-0.124,-1.2822,0.1689,-0.548,-0.073,-0.316,8.249,-13.037,18.599,3
0.6802,-0.5864,0.2845,-0.3353,29.72014,-84.19581,179.38171,167.14497,-0.1079,-1.2641,0.1401,-0.552,-0.221,-0.281,8.249,-13.037,18.599,3
0.6769,-0.5942,0.2809,-0.3312,29.01524,-85.03426,178.6566,167.82547,-0.0454,-1.1235,0.1132,-0.453,-0.528,-0.126,8.249,-13.037,18.599,3
0.676,-0.5987,0.2785,-0.3269,28.79874,-85.396736,178.48619,168.4106,0.0004,-0.9916,0.1059,-0.374,-0.565,0.012,4.649,-12.137,24.299,3
0.6759,-0.6003,0.2775,-0.3248,28.433477,-85.496574,178.48903,168.6714,0.0322,-0.9306,0.1123,-0.287,-0.499,0.082,4.649,-12.137,24.299,3
0.6764,-0.6016,0.2774,-0.3216,28.293482,-85.484344,178.80678,169.17358,0.0556,-0.8481,0.1025,-0.111,-0.174,0.241,4.649,-12.137,24.299,3
0.6767,-0.6013,0.2785,-0.3205,28.173227,-85.391655,179.13017,169.45415,0.0532,-0.8457,0.0849,-0.044,0.015,0.323,4.649,-12.137,24.299,3
0.6826,-0.5925,0.2935,-0.3109,26.517422,-83.70129,183.28548,172.05865,-0.1679,-1.0449,-0.0361,0.147,0.022,0.888,4.649,-12.137,24.299,3
0.6845,-0.591,0.296,-0.3073,25.465786,-83.28295,184.27203,172.71371,-0.1669,-1.0815,-0.0273,0.139,-0.107,0.967,4.649,-12.137,24.299,3
0.6889,-0.5881,0.3,-0.2989,24.893288,-82.38662,186.27007,174.02153,-0.1523,-1.0532,0.0009,0.144,-0.327,1.047,4.649,-12.137,24.299,3
0.6913,-0.5868,0.3016,-0.2943,24.332035,-81.92886,187.25761,174.67155,-0.1367,-1.0283,0.0141,0.152,-0.401,1.056,4.649,-12.137,24.299,3
0.7031,-0.5775,0.3082,-0.2774,22.659147,-79.63583,191.29544,176.68483,-0.0375,-0.8764,0.1401,0.395,0.019,0.763,7.799,-15.737,20.399,3
0.7049,-0.5747,0.3104,-0.2762,22.610638,-79.18725,191.96562,176.85095,-0.039,-0.8588,0.1499,0.437,0.214,0.716,7.799,-15.737,20.399,3
0.7065,-0.5715,0.3131,-0.2755,22.618994,-78.72322,192.65347,176.98724,-0.0737,-0.8393,0.1464,0.458,0.393,0.707,7.799,-15.737,20.399,3
0.7093,-0.5652,0.3191,-0.2746,22.565542,-77.83033,194.01978,177.26924,-0.1791,-0.8452,0.0947,0.411,0.46,0.719,7.799,-15.737,20.399,3
0.7108,-0.5624,0.3217,-0.2736,22.402845,-77.39627,194.69328,177.44951,-0.2294,-0.8613,0.0571,0.358,0.32,0.72,7.799,-15.737,20.399,3
0.7124,-0.5601,0.3238,-0.2717,22.181067,-76.97729,195.37994,177.71754,-0.2509,-0.8803,0.0234,0.328,0.11,0.714,7.799,-15.737,20.399,3
0.7163,-0.5565,0.3257,-0.2665,21.501799,-76.185425,196.55765,178.21568,-0.2568,-0.9189,-0.018,0.33,-0.32,0.681,7.799,-15.737,20.399,3
0.7214,-0.5536,0.3243,-0.2601,20.787306,-75.41917,197.39453,178.5157,-0.2001,-0.9453,0.0117,0.412,-0.638,0.58,7.799,-15.737,20.399,3
0.724,-0.5523,0.3231,-0.2573,20.526604,-75.07372,197.68,178.57133,-0.1606,-0.9667,0.0488,0.42,-0.617,0.518,7.799,-15.737,20.399,3
0.7263,-0.5509,0.3223,-0.255,20.361916,-74.74688,197.9544,178.6114,-0.1376,-0.9775,0.083,0.407,-0.465,0.484,7.799,-15.737,20.399,3
0.7281,-0.5493,0.3222,-0.2533,20.269596,-74.43862,198.25003,178.65462,-0.1323,-0.9589,0.0834,0.366,-0.253,0.463,7.799,-15.737,20.399,3
0.7294,-0.5478,0.3227,-0.2521,20.248892,-74.17297,198.55263,178.71992,-0.1416,-0.9252,0.0581,0.327,-0.063,0.431,7.799,-15.737,20.399,3
0.7304,-0.5462,0.3236,-0.2514,20.2873,-73.92559,198.84897,178.7661,-0.1523,-0.9121,0.0522,0.303,0.066,0.376,7.799,-15.737,20.399,3
0.7312,-0.5447,0.3247,-0.2512,20.404127,-73.71223,199.1048,178.78029,-0.1645,-0.8925,0.0541,0.294,0.168,0.299,7.799,-15.737,20.399,3
0.7318,-0.543,0.3259,-0.2516,20.586666,-73.51404,199.30968,178.72205,-0.1772,-0.875,0.0595,0.294,0.268,0.225,7.799,-15.737,20.399,3
0.7322,-0.5412,0.3273,-0.2525,20.818863,-73.33323,199.48497,178.6202,-0.1933,-0.8691,0.0659,0.302,0.373,0.157,7.799,-15.737,20.399,3
0.7325,-0.5393,0.3287,-0.2538,21.055656,-73.16518,199.61716,178.46404,-0.1997,-0.8676,0.0678,0.321,0.443,0.111,7.799,-15.737,20.399,3
0.7325,-0.5359,0.3321,-0.2564,21.500221,-72.8855,199.93674,178.25684,-0.2368,-0.9042,0.0463,0.307,0.472,0.089,10.049,-20.687,19.049,3
0.7334,-0.5313,0.3365,-0.2578,21.610847,-72.37785,200.59879,178.1895,-0.2915,-1.0439,0.0205,0.189,0.074,0.191,10.049,-20.687,19.049,3
0.7348,-0.5297,0.337,-0.2562,21.534718,-72.081955,200.94196,178.29102,-0.2685,-1.0903,0.0317,0.109,-0.096,0.248,10.049,-20.687,19.049,3
0.7355,-0.5293,0.3369,-0.2554,21.485601,-71.977036,201.04681,178.33226,-0.2353,-1.0874,0.0541,0.092,-0.136,0.181,10.049,-20.687,19.049,3
0.7362,-0.5281,0.3358,-0.2572,21.918625,-71.92778,200.75873,177.89749,-0.1547,-1.1064,0.1342,0.078,0.116,-0.224,10.049,-20.687,19.049,3
0.7355,-0.5282,0.3359,-0.2589,22.173288,-72.04085,200.56589,177.722,-0.1054,-1.101,0.1674,0.006,0.22,-0.295,10.049,-20.687,19.049,3
0.7275,-0.5287,0.3408,-0.2737,24.319014,-73.0148,199.3916,176.6389,-0.0366,-1.1362,0.225,-0.107,1.005,-0.692,10.049,-20.687,19.049,3
0.7243,-0.5288,0.3432,-0.2791,25.09552,-73.368065,199.0308,176.3145,-0.0551,-1.1831,0.249,-0.116,1.183,-0.751,10.049,-20.687,19.049,3
0.7207,-0.5284,0.3462,-0.2851,26.790432,-73.71392,198.69151,175.96133,-0.0927,-1.2368,0.2368,-0.09,1.375,-0.752,10.049,-20.687,19.049,3
0.7035,-0.5269,0.3578,-0.315,29.527107,-75.54309,196.42311,173.92091,-0.1557,-1.0727,0.2944,-0.127,0.955,-0.888,7.949,-22.787,22.799,3
0.6895,-0.5319,0.3592,-0.3354,32.131966,-77.61941,193.43967,172.38994,-0.0395,-0.9023,0.3393,-0.325,0.726,-0.992,7.949,-22.787,22.799,3
0.6834,-0.5356,0.3582,-0.343,32.374424,-78.64207,191.92831,171.82306,-0.0883,-0.8769,0.2998,-0.334,0.339,-0.9,7.949,-22.787,22.799,3
0.6794,-0.5401,0.3543,-0.3477,32.64495,-79.54755,190.38222,171.25935,-0.0864,-0.8886,0.2397,-0.234,-0.121,-0.835,7.949,-22.787,22.799,3
0.6782,-0.5423,0.3517,-0.3494,32.763397,-79.930885,189.63292,170.94106,-0.0712,-0.8999,0.2177,-0.166,-0.233,-0.772,7.949,-22.787,22.799,3
0.677,-0.5443,0.3492,-0.3511,33.330757,-80.29434,188.9083,170.61603,-0.0463,-0.8754,0.2026,-0.109,-0.24,-0.751,7.949,-22.787,22.799,3
0.6718,-0.55,0.3408,-0.3604,33.996178,-81.62622,186.05305,168.99269,-0.0004,-0.8471,0.1845,0.007,0.145,-0.76,7.949,-22.787,22.799,3
0.6701,-0.5508,0.3396,-0.3635,34.3743,-81.94108,185.3888,168.56003,-0.017,-0.8535,0.1879,-0.001,0.254,-0.756,7.949,-22.787,22.799,3
0.6682,-0.5515,0.3386,-0.3667,34.72678,-82.26089,184.73463,168.13884,-0.0449,-0.8447,0.1835,-0.015,0.288,-0.736,3.749,-22.637,29.849,3
0.6664,-0.5523,0.3376,-0.3697,35.067005,-82.5742,184.1006,167.7448,-0.0717,-0.8403,0.1831,-0.022,0.272,-0.731,3.749,-22.637,29.849,3
0.6646,-0.5532,0.3365,-0.3726,35.423714,-82.89357,183.4564,167.35638,-0.0961,-0.8398,0.1879,-0.043,0.24,-0.719,3.749,-22.637,29.849,3
0.6628,-0.554,0.3356,-0.3756,35.817772,-83.20353,182.83336,166.97116,-0.1074,-0.8339,0.2021,-0.045,0.281,-0.708,3.749,-22.637,29.849,3
0.6608,-0.5546,0.3349,-0.3788,36.230938,-83.5144,182.2158,166.57846,-0.1201,-0.8432,0.1899,-0.034,0.363,-0.722,3.749,-22.637,29.849,3
0.6587,-0.5551,0.3343,-0.3821,36.6293,-83.825676,181.60048,166.1815,-0.1186,-0.8393,0.1787,-0.038,0.406,-0.726,3.749,-22.637,29.849,3
0.6566,-0.5558,0.3336,-0.3853,36.989483,-84.15133,180.9672,165.7975,-0.145,-0.8408,0.1689,-0.062,0.367,-0.726,3.749,-22.637,29.849,3
0.6526,-0.5581,0.3314,-0.3906,37.518936,-84.83877,179.65883,165.12128,-0.1728,-0.8461,0.1645,-0.131,0.129,-0.713,3.749,-22.637,29.849,3
0.6508,-0.5598,0.3299,-0.3926,37.7452,-85.197655,178.9926,164.84396,-0.1762,-0.851,0.1826,-0.169,0.024,-0.716,3.749,-22.637,29.849,3
0.649,-0.5616,0.3281,-0.3945,37.941845,-85.56576,178.28883,164.54338,-0.1723,-0.8461,0.1826,-0.192,-0.051,-0.719,3.749,-22.637,29.849,3
0.6472,-0.5635,0.3263,-0.3961,38.21974,-85.932495,177.60786,164.28796,-0.1689,-0.8608,0.186,-0.197,-0.102,-0.713,3.749,-22.637,29.849,3
0.6443,-0.5673,0.3228,-0.3984,38.334843,-86.582016,176.4003,163.8748,-0.1689,-0.8779,0.1875,-0.229,-0.178,-0.665,3.749,-22.637,29.849,3
0.6416,-0.5713,0.3193,-0.3998,38.4521,-87.204765,175.282,163.58159,-0.1455,-0.9252,0.1875,-0.266,-0.255,-0.59,3.749,-22.637,29.849,3
0.6384,-0.5775,0.3143,-0.4,38.44569,-88.02971,173.87787,163.40335,-0.1557,-0.957,0.2094,-0.304,-0.351,-0.483,3.749,-22.637,29.849,3
0.6374,-0.5796,0.3128,-0.3997,38.399902,-88.289665,173.47066,163.41638,-0.1562,-0.9667,0.2089,-0.33,-0.365,-0.438,3.749,-22.637,29.849,3
0.6343,-0.5888,0.308,-0.3948,37.739395,-89.20687,172.39632,164.18214,-0.1074,-1.0727,0.1787,-0.421,-0.53,-0.144,-4.65,-25.487,-31.487,3
0.6339,-0.5913,0.3069,-0.3926,37.455143,-89.39465,172.26183,164.52399,-0.0864,-1.0981,0.1655,-0.418,-0.579,-0.029,-4.65,-25.487,-31.487,3
0.634,-0.5959,0.3052,-0.3869,36.71665,-89.6238,172.31386,165.3996,-0.0224,-1.1508,0.1713,-0.415,-0.674,0.18,-4.65,-25.487,-31.487,3
0.6343,-0.5979,0.3048,-0.3834,36.334843,-89.66974,172.52179,165.96742,0.0258,-1.1738,0.1762,-0.417,-0.658,0.298,-4.65,-25.487,-31.487,3
0.6352,-0.6005,0.3061,-0.3767,35.655746,-89.59596,173.3315,167.2684,0.0781,-1.2319,0.2192,-0.354,-0.367,0.539,-4.65,-25.487,-31.487,3
0.6358,-0.6008,0.3109,-0.3715,35.18982,-89.330925,174.6095,168.73265,0.081,-1.2924,0.2163,-0.332,0.063,0.68,-4.65,-25.487,-31.487,3
0.6358,-0.6004,0.3142,-0.3693,34.99664,-89.16493,175.348,169.51369,0.0683,-1.3281,0.1938,-0.33,0.184,0.717,-4.65,-25.487,-31.487,3
0.6363,-0.5992,0.3206,-0.365,34.02449,-88.75386,176.86816,170.95691,0.0048,-1.3344,0.1044,-0.265,0.149,0.749,-4.65,-25.487,-31.487,3
0.6385,-0.5981,0.3254,-0.3585,33.48888,-88.17173,178.5787,172.36237,-0.0498,-1.3671,0.0346,-0.143,-0.227,0.879,-4.65,-25.487,-31.487,3
0.6407,-0.5976,0.3269,-0.3542,32.846058,-87.785866,179.52425,173.01381,-0.0253,-1.3471,0.0073,-0.076,-0.449,0.944,-4.65,-25.487,-31.487,3
0.6433,-0.5972,0.3277,-0.3491,32.121964,-87.36837,180.49773,173.65857,0.0161,-1.3266,0.0039,-0.022,-0.672,0.998,-4.65,-25.487,-31.487,3
0.6497,-0.5965,0.3281,-0.3379,28.0051,-86.44945,182.48022,174.85057,0.0878,-1.2368,0.0063,0.078,-0.887,1.016,-6.9,-25.937,-25.337,3
0.6726,-0.5875,0.3268,-0.3089,26.708557,-83.13495,188.00423,176.76897,0.0102,-1.1757,0.0351,0.573,-0.677,1.069,-6.9,-25.937,-25.337,3
0.6771,-0.5849,0.3268,-0.3042,26.020039,-82.44909,188.99687,176.99461,-0.0292,-1.1704,0.0292,0.591,-0.702,1.124,-6.9,-25.937,-25.337,3
0.6865,-0.5796,0.3261,-0.2937,24.512966,-81.02479,190.99062,177.49728,-0.062,-1.1201,0.0239,0.61,-0.879,1.18,-6.9,-25.937,-25.337,3
0.6957,-0.5754,0.3244,-0.282,22.920647,-79.69076,192.84279,178.14726,-0.0541,-1.0078,0.0415,0.502,-1.054,1.174,-6.9,-25.937,-25.337,3
0.7001,-0.5737,0.3232,-0.2758,20.64046,-79.06837,193.70572,178.52235,-0.0317,-0.9809,0.0483,0.436,-1.107,1.148,-6.9,-25.937,-25.337,3
0.7203,-0.5545,0.3296,-0.2547,20.98671,-75.216,198.71364,179.87267,0.0288,-0.7114,0.1215,0.665,0.789,0.785,-6.9,-25.937,-25.337,3
0.7214,-0.5497,0.3345,-0.2558,21.4086,-74.64913,199.50519,179.8805,-0.0463,-0.6992,0.0893,0.671,1.022,0.789,-5.1,-25.187,-26.687,3
0.7223,-0.5446,0.3396,-0.2572,21.875511,-74.07581,200.29568,179.85081,-0.1147,-0.6845,0.0517,0.687,1.135,0.77,-5.1,-25.187,-26.687,3
0.7232,-0.5395,0.3447,-0.2588,22.310795,-73.51054,201.05917,179.78603,-0.1796,-0.6987,0.0224,0.696,1.136,0.743,-5.1,-25.187,-26.687,3
0.7254,-0.5298,0.353,-0.2612,23.03909,-72.42214,202.39665,179.56772,-0.2597,-0.7128,-0.0097,0.714,0.853,0.664,-5.1,-25.187,-26.687,3
0.7269,-0.5255,0.356,-0.262,23.302774,-71.91746,202.93156,179.41057,-0.2739,-0.7377,-0.0087,0.699,0.656,0.601,-5.1,-25.187,-26.687,3
0.7284,-0.5216,0.3583,-0.2624,23.501348,-71.450584,203.39705,179.26216,-0.2749,-0.7705,0.0019,0.653,0.487,0.56,-5.1,-25.187,-26.687,3
0.7315,-0.515,0.3615,-0.2621,23.729418,-70.60695,204.20265,179.04414,-0.3032,-0.8168,-0.0053,0.54,0.227,0.516,-5.1,-25.187,-26.687,3
0.7333,-0.5122,0.3624,-0.2615,23.756752,-70.21364,204.53754,178.94899,-0.3125,-0.8383,-0.0087,0.52,0.082,0.476,-5.1,-25.187,-26.687,3
0.737,-0.5079,0.3621,-0.2599,23.666834,-69.57267,204.9055,178.70241,-0.2998,-0.8471,0.0004,0.498,-0.21,0.317,-5.1,-25.187,-26.687,3
0.7422,-0.5046,0.3576,-0.2578,23.558348,-69.01825,204.72878,178.16089,-0.2099,-0.9228,0.0825,0.268,-0.161,0.038,-5.1,-25.187,-26.687,3
0.743,-0.5023,0.3587,-0.2583,23.778677,-68.76524,204.92804,178.02357,-0.2866,-1.0332,0.0317,0.199,0.121,0.129,-5.1,-25.187,-26.687,3
0.7419,-0.5008,0.3607,-0.2617,24.424688,-68.78682,204.88289,177.72424,-0.1362,-1.081,0.1738,-0.079,0.158,-0.246,-4.95,-23.087,-32.387,3
0.7384,-0.502,0.3617,-0.268,25.300507,-69.32539,204.24568,177.2347,-0.0615,-1.062,0.2158,-0.049,0.632,-0.557,-4.95,-23.087,-32.387,3
0.7329,-0.5025,0.3643,-0.2783,26.555294,-70.045845,203.3774,176.42491,-0.1196,-1.0244,0.229,0.02,1.026,-0.804,-4.95,-23.087,-32.387,3
0.7298,-0.5025,0.366,-0.284,27.172634,-70.41961,202.93303,175.98776,-0.1733,-1.0214,0.2084,0.01,1.089,-0.84,-4.95,-23.087,-32.387,3
0.7267,-0.5027,0.3677,-0.2894,27.710001,-70.79967,202.50407,175.60295,-0.208,-1.0244,0.1997,-0.029,1.041,-0.811,-4.95,-23.087,-32.387,3
0.7237,-0.5031,0.3695,-0.294,28.181303,-71.15721,202.16087,175.33882,-0.2114,-1.1,0.2119,-0.127,0.944,-0.716,-4.95,-23.087,-32.387,3
0.7208,-0.5036,0.3714,-0.2979,28.641281,-71.48737,201.89864,175.17699,-0.2153,-1.1591,0.2373,-0.193,0.898,-0.591,-4.95,-23.087,-32.387,3
0.7179,-0.5039,0.3737,-0.3014,30.395891,-71.77519,201.7387,175.09283,-0.2329,-1.2583,0.2348,-0.218,0.909,-0.483,-4.95,-23.087,-32.387,3
0.7072,-0.5052,0.3811,-0.315,30.747427,-72.91424,200.86903,174.63518,-0.2421,-1.2163,0.2651,-0.202,0.619,-0.671,-4.95,-23.087,-32.387,3
0.6836,-0.5204,0.3802,-0.3423,33.45734,-76.81006,195.9286,173.23938,-0.1044,-0.9594,0.3227,-0.584,0.503,-1.205,-2.1,-18.287,-32.237,3
0.6798,-0.5239,0.379,-0.3458,33.65554,-77.51628,194.97997,173.10059,-0.125,-0.9589,0.3012,-0.596,0.258,-1.16,-2.1,-18.287,-32.237,3
0.6766,-0.5277,0.377,-0.3485,33.827232,-78.19636,194.01033,172.9696,-0.1245,-0.9423,0.2734,-0.56,0.007,-1.115,-2.1,-18.287,-32.237,3
0.6717,-0.5357,0.3706,-0.3526,33.860764,-79.499535,191.91252,172.55098,-0.1005,-0.9013,0.2187,-0.445,-0.4,-1.124,-2.1,-18.287,-32.237,3
0.6697,-0.5398,0.3667,-0.3543,33.878235,-80.13181,190.81313,172.28075,-0.0795,-0.8583,0.1821,-0.387,-0.506,-1.134,-2.1,-18.287,-32.237,3
0.666,-0.5479,0.3584,-0.3573,33.96806,-81.36041,188.5959,171.68192,-0.0249,-0.7915,0.1406,-0.335,-0.562,-1.098,-2.1,-18.287,-32.237,3
0.6642,-0.5516,0.3544,-0.3588,34.068092,-81.93668,187.52507,171.3572,0.0043,-0.7753,0.1298,-0.32,-0.519,-1.061,-2.1,-18.287,-32.237,3
0.6624,-0.5551,0.3507,-0.3605,34.22642,-82.49475,186.47891,171.01828,0.02,-0.7631,0.1264,-0.279,-0.438,-1.042,-2.1,-18.287,-32.237,3
0.6606,-0.5581,0.3473,-0.3625,34.440144,-83.01439,185.46814,170.6317,0.0336,-0.7529,0.142,-0.217,-0.33,-1.017,-2.1,-18.287,-32.237,3
0.6588,-0.5606,0.3442,-0.3648,34.70086,-83.495514,184.49411,170.19865,0.0166,-0.7617,0.1655,-0.139,-0.221,-0.99,-2.1,-18.287,-32.237,3
0.6571,-0.5626,0.3413,-0.3674,36.304913,-83.93294,183.55107,169.7022,-0.0063,-0.7661,0.2026,-0.07,-0.12,-0.951,-2.1,-18.287,-32.237,3
0.6474,-0.5714,0.3296,-0.3815,36.44775,-86.056564,179.06528,167.31761,-0.1987,-0.8266,0.1245,-0.127,-0.106,-0.666,-9.9,-15.887,-26.087,3
0.6462,-0.5732,0.3274,-0.3828,36.539913,-86.372856,178.40443,167.01935,-0.2124,-0.8364,0.1176,-0.121,-0.203,-0.648,-9.9,-15.887,-26.087,3
0.6444,-0.5771,0.3222,-0.3842,36.51472,-86.95826,177.1308,166.45612,-0.2119,-0.8637,0.1157,-0.116,-0.398,-0.577,-9.9,-15.887,-26.087,3
0.6436,-0.5808,0.3175,-0.3839,36.47333,-87.38726,176.20082,166.1235,-0.1699,-0.9067,0.1528,-0.137,-0.463,-0.476,-9.9,-15.887,-26.087,3
0.6412,-0.5881,0.3122,-0.3812,36.106277,-88.167114,175.06044,166.36157,-0.1367,-1.0351,0.1582,-0.227,-0.18,-0.038,-9.9,-15.887,-26.087,3
0.6417,-0.5909,0.3125,-0.3759,35.360634,-88.19297,175.52948,167.32964,-0.0878,-1.103,0.1704,-0.236,-0.347,0.25,-9.9,-15.887,-26.087,3
0.6421,-0.5917,0.3128,-0.3734,35.05691,-88.14726,175.82877,167.76479,-0.0415,-1.1347,0.1933,-0.239,-0.366,0.341,-9.9,-15.887,-26.087,3
0.6427,-0.5925,0.3134,-0.3708,34.743233,-88.07609,176.1973,168.24707,-0.0122,-1.1586,0.2128,-0.241,-0.332,0.425,-9.9,-15.887,-26.087,3
0.6441,-0.5931,0.3156,-0.3655,34.170704,-87.81294,177.17992,169.2873,0.0136,-1.1674,0.2353,-0.199,-0.211,0.552,-11.55,-9.287,-23.987,3
0.6454,-0.5923,0.3196,-0.361,33.766434,-87.425804,178.41794,170.37036,0.0434,-1.2163,0.2446,-0.168,0.049,0.63,-11.55,-9.287,-23.987,3
0.6457,-0.5915,0.3224,-0.3592,33.63455,-87.21928,179.09892,170.94699,0.0234,-1.2299,0.2241,-0.177,0.19,0.659,-11.55,-9.287,-23.987,3
0.6459,-0.5905,0.3255,-0.3577,33.525146,-87.00356,179.7937,171.50983,0.0131,-1.2563,0.1762,-0.185,0.295,0.666,-11.55,-9.287,-23.987,3
0.6464,-0.5879,0.3321,-0.355,33.287323,-86.507195,181.25676,172.5831,-0.0761,-1.2939,0.081,-0.092,0.355,0.706,-11.55,-9.287,-23.987,3
0.6481,-0.5844,0.3384,-0.3517,31.814037,-85.8277,182.90428,173.53804,-0.1982,-1.3745,-0.0122,0.024,0.252,0.823,-11.55,-9.287,-23.987,3
0.6551,-0.5801,0.3435,-0.341,31.113304,-84.463264,185.71242,174.95073,-0.1718,-1.3369,-0.0493,0.109,-0.595,0.977,-11.55,-9.287,-23.987,3
0.6583,-0.5796,0.3432,-0.3356,30.33657,-84.009155,186.58607,175.42688,-0.1196,-1.2968,-0.041,0.085,-0.873,0.948,-11.55,-9.287,-23.987,3
0.6618,-0.5797,0.3421,-0.3298,29.4943,-83.589905,187.3708,175.88351,-0.08,-1.2539,-0.0395,0.072,-1.102,0.902,-11.55,-9.287,-23.987,3
0.6655,-0.58,0.3402,-0.3236,28.628393,-83.18263,188.08801,176.30077,-0.0361,-1.2236,-0.0307,0.091,-1.288,0.844,-11.55,-9.287,-23.987,3
0.6695,-0.5804,0.3377,-0.3174,27.786247,-82.781815,188.72322,176.63861,0.0014,-1.1992,-0.0151,0.158,-1.388,0.794,-11.55,-9.287,-23.987,3
0.6776,-0.5802,0.3325,-0.3057,26.212431,-81.93164,189.91544,177.13914,0.0668,-1.185,0.0166,0.294,-1.304,0.781,-11.55,-9.287,-23.987,3
0.6817,-0.5795,0.3303,-0.3002,25.502985,-81.458824,190.54453,177.35692,0.0737,-1.1782,0.0361,0.352,-1.198,0.807,-11.55,-9.287,-23.987,3
0.6897,-0.5767,0.3274,-0.2904,24.265583,-80.4186,191.8935,177.7439,0.0512,-1.1376,0.038,0.454,-0.899,0.875,6.299,-5.837,32.399,3
0.7001,-0.571,0.3266,-0.2773,22.69965,-78.80685,194.13757,178.53139,0.0356,-1.0244,0.0146,0.397,-0.601,1.005,6.299,-5.837,32.399,3
0.703,-0.5691,0.327,-0.2733,22.308199,-78.30211,194.89081,178.84978,0.0366,-0.9726,0.038,0.366,-0.495,0.993,6.299,-5.837,32.399,3
0.7056,-0.5671,0.3278,-0.2699,21.982542,-77.819496,195.61119,179.13942,0.0405,-0.9233,0.0512,0.357,-0.348,0.957,6.299,-5.837,32.399,3
0.7081,-0.5646,0.3293,-0.2668,23.453432,-77.293175,196.40605,179.43661,0.0507,-0.8774,0.0756,0.366,-0.178,0.916,6.299,-5.837,32.399,3
0.7218,-0.5292,0.3574,-0.2663,23.643126,-72.66964,202.3709,179.45609,-0.1933,-0.6616,0.0117,0.524,0.477,0.416,6.299,-5.837,32.399,3
0.7232,-0.5262,0.359,-0.2667,23.772346,-72.30449,202.70549,179.30186,-0.2573,-0.7197,0.0019,0.547,0.348,0.413,6.299,-5.837,32.399,3
0.7248,-0.5232,0.3599,-0.2667,23.826643,-71.931366,202.99374,179.1243,-0.3041,-0.7563,-0.0024,0.574,0.18,0.415,6.299,-5.837,32.399,3
0.741,-0.5173,0.343,-0.2558,22.008505,-70.4751,202.42879,177.9182,-0.1552,-0.9272,0.0693,0.218,-0.92,-0.102,16.799,-12.137,24.299,3
0.7431,-0.5185,0.3375,-0.2547,22.12975,-70.54528,201.78307,177.54482,-0.1455,-0.9946,0.0561,0.112,0.018,-0.011,16.799,-12.137,24.299,3
0.7426,-0.5174,0.3395,-0.2559,22.34295,-70.47733,201.96225,177.52985,-0.1811,-1.0639,0.0346,0.139,0.337,0.107,16.799,-12.137,24.299,3
0.7422,-0.5161,0.3413,-0.2569,22.590166,-70.38357,202.14703,177.50606,-0.2128,-1.0566,0.0244,0.22,0.456,0.135,16.799,-12.137,24.299,3
0.742,-0.5128,0.3455,-0.2587,23.18936,-70.07699,202.65585,177.47179,-0.2568,-1.0957,0.0214,0.169,0.503,0.209,16.799,-12.137,24.299,3
0.7099,-0.5122,0.3756,-0.304,30.047989,-73.020515,201.07397,175.83992,-0.3276,-1.3173,0.2124,-0.447,1.222,-0.84,21.299,-17.087,23.249,3
0.6689,-0.5635,0.3467,-0.3385,33.051483,-82.01302,188.37799,173.73648,0.0839,-0.8637,0.121,-0.15,-0.335,-0.989,16.649,-17.987,-32.387,3
0.6586,-0.5752,0.3296,-0.3556,38.20703,-84.69539,182.56331,170.59587,-0.0087,-0.7836,0.2211,0.025,0.116,-0.912,16.649,-17.987,-32.387,3
0.6349,-0.5825,0.3165,-0.3965,39.386402,-88.579056,173.86728,164.74945,-0.1689,-0.9238,0.1611,0.011,0.759,-0.55,11.099,-21.137,-28.337,3
0.6294,-0.5812,0.3191,-0.4051,39.484375,-89.11321,172.93149,164.10742,-0.186,-0.9775,0.1743,-0.07,0.248,-0.268,11.099,-21.137,-28.337,3
0.6287,-0.5812,0.3195,-0.4057,39.525185,-89.17986,172.86116,164.11908,-0.1723,-0.9985,0.1933,-0.103,0.159,-0.184,11.099,-21.137,-28.337,3
0.6283,-0.5813,0.32,-0.4059,39.47465,-89.217445,172.86284,164.19453,-0.1694,-1.0078,0.207,-0.124,0.075,-0.096,11.099,-21.137,-28.337,3
0.6283,-0.5814,0.3205,-0.4054,39.36706,-89.2034,172.97289,164.34853,-0.1611,-1.0229,0.2114,-0.128,-0.007,0.01,11.099,-21.137,-28.337,3
0.6284,-0.5816,0.321,-0.4044,39.188637,-89.175064,173.13742,164.5754,-0.1606,-1.0371,0.1997,-0.149,-0.096,0.098,11.099,-21.137,-28.337,3
0.6291,-0.5829,0.3217,-0.4011,38.733055,-89.11569,173.53879,165.20657,-0.1083,-1.1083,0.1586,-0.215,-0.267,0.246,11.099,-21.137,-28.337,3
0.6294,-0.5837,0.3222,-0.3989,38.47873,-89.0826,173.80553,165.63605,-0.0537,-1.1542,0.124,-0.239,-0.292,0.315,11.099,-21.137,-28.337,3
0.6304,-0.5845,0.3238,-0.3948,38.11458,-88.916885,174.48727,166.46051,0.0527,-1.2241,0.1323,-0.173,-0.153,0.393,11.099,-21.137,-28.337,3
0.6308,-0.5841,0.3256,-0.3934,38.046997,-88.7778,174.94489,166.87456,0.0761,-1.2539,0.1264,-0.148,0.066,0.448,11.099,-21.137,-28.337,3
0.6309,-0.5831,0.3281,-0.3925,38.0491,-88.61498,175.46336,167.29141,0.06,-1.2734,0.1289,-0.116,0.305,0.506,11.099,-21.137,-28.337,3
0.6311,-0.5794,0.3352,-0.3918,38.126507,-88.13975,176.78938,168.13785,-0.0087,-1.2944,0.0937,-0.043,0.611,0.627,11.099,-21.137,-28.337,3
0.6311,-0.5771,0.3392,-0.3916,38.16195,-87.86545,177.52357,168.5673,-0.0498,-1.3305,0.083,-0.034,0.684,0.673,11.099,-21.137,-28.337,3
0.6318,-0.5722,0.3475,-0.3904,38.01672,-87.19659,179.203,169.49113,-0.1621,-1.4008,0.0498,-0.006,0.59,0.795,11.399,-27.737,-25.637,3
0.6328,-0.5702,0.3509,-0.3888,37.722645,-86.82728,180.0739,169.96887,-0.1806,-1.4062,0.039,-0.015,0.344,0.845,11.399,-27.737,-25.637,3
0.6343,-0.5688,0.3534,-0.386,37.248024,-86.44539,180.95706,170.49641,-0.1499,-1.3837,0.0224,-0.05,0.001,0.888,11.399,-27.737,-25.637,3
0.6452,-0.5708,0.3527,-0.3652,34.230915,-85.074425,183.98157,172.73895,0.0654,-1.2177,0.0288,-0.122,-1.329,0.7,11.399,-27.737,-25.637,3
0.6484,-0.5723,0.3505,-0.3593,32.839035,-84.80659,184.5096,173.17844,0.1875,-1.1762,0.0839,-0.089,-1.341,0.665,11.399,-27.737,-25.637,3
0.6788,-0.5621,0.3497,-0.3176,28.615551,-80.35789,191.96422,176.26312,0.0253,-0.749,0.0742,0.222,-0.192,0.624,6.299,29.099,-23.687,3
0.6824,-0.5578,0.3522,-0.3144,28.427574,-79.5784,193.13031,176.48602,0.0126,-0.7543,0.0942,0.345,0.068,0.659,6.299,29.099,-23.687,3
0.6842,-0.555,0.354,-0.3134,28.422739,-79.14371,193.74695,176.5334,-0.0151,-0.7509,0.1044,0.413,0.192,0.666,6.299,29.099,-23.687,3
0.6876,-0.5487,0.3587,-0.312,28.477015,-78.22245,195.07658,176.62634,-0.0649,-0.746,0.0795,0.432,0.363,0.717,6.299,29.099,-23.687,3
0.6891,-0.5455,0.3613,-0.3113,28.559328,-77.76343,195.76431,176.70213,-0.0927,-0.7548,0.059,0.416,0.403,0.738,6.299,29.099,-23.687,3
0.6953,-0.533,0.3711,-0.3076,28.524937,-75.91767,198.48686,177.03459,-0.2758,-0.8398,-0.0209,0.409,0.218,0.7,6.299,29.099,-23.687,3
0.6996,-0.5276,0.3733,-0.3045,28.19986,-75.015045,199.59042,177.07109,-0.3227,-0.8447,-0.0209,0.515,-0.134,0.598,6.299,29.099,-23.687,3
0.7021,-0.5257,0.3726,-0.3027,27.924025,-74.64923,199.88539,176.98074,-0.2846,-0.8359,-0.0292,0.46,-0.365,0.492,6.299,29.099,-23.687,3
0.7068,-0.5243,0.369,-0.2985,27.295118,-74.17049,200.0958,176.84401,-0.1518,-0.8559,0.0048,0.241,-0.69,0.242,6.299,29.099,-23.687,3
0.7086,-0.5244,0.367,-0.2967,27.11623,-74.04888,200.07687,176.80013,-0.0947,-0.872,0.0522,0.158,-0.632,0.145,6.299,29.099,-23.687,3
0.7103,-0.5235,0.3659,-0.2954,27.214916,-73.84606,200.17062,176.7208,-0.102,-0.9038,0.0776,0.093,0.116,0.11,2.699,26.099,-22.187,3
0.71,-0.5219,0.3682,-0.2961,27.473558,-73.69718,200.47694,176.76424,-0.163,-0.9501,0.0478,0.106,0.292,0.169,2.699,26.099,-22.187,3
0.7099,-0.5207,0.3699,-0.2964,27.61203,-73.56911,200.73235,176.8163,-0.185,-1.0029,0.0415,0.141,0.344,0.233,2.699,26.099,-22.187,3
0.7092,-0.5169,0.3761,-0.2971,28.749676,-73.15259,201.6702,177.1026,-0.187,-1.0483,0.0278,0.073,0.446,0.281,2.699,26.099,-22.187,3
0.7061,-0.5138,0.3831,-0.3008,29.140368,-73.041664,202.27254,177.23793,-0.2065,-1.083,0.0776,0.033,0.726,-0.026,2.699,26.099,-22.187,3
0.7046,-0.5129,0.3853,-0.3032,29.855497,-73.09768,202.29999,177.15509,-0.2192,-1.0874,0.0698,0.025,0.748,-0.153,2.699,26.099,-22.187,3
0.6922,-0.5128,0.394,-0.3202,31.966564,-74.3279,201.13754,176.46078,-0.1474,-1.1621,0.1816,-0.137,0.777,-0.578,2.699,26.099,-22.187,3
0.6894,-0.513,0.3954,-0.3241,33.06773,-74.64531,200.76523,176.26495,-0.1782,-1.2343,0.1811,-0.091,0.829,-0.63,2.699,26.099,-22.187,3
0.6836,-0.5128,0.3991,-0.3321,33.57244,-75.22808,200.13034,175.91158,-0.2568,-1.3168,0.1718,-0.102,0.955,-0.504,2.699,26.099,-22.187,3
0.6784,-0.5129,0.4023,-0.3386,34.26054,-75.74941,199.59108,175.69768,-0.3095,-1.2856,0.1279,-0.141,0.682,-0.477,-5.25,21.899,-16.787,3
0.6763,-0.5138,0.4028,-0.3409,34.42644,-76.038895,199.24718,175.6391,-0.2866,-1.2778,0.1572,-0.187,0.423,-0.503,-5.25,21.899,-16.787,3
0.6669,-0.5236,0.4001,-0.3475,34.80492,-77.78308,197.07123,175.78542,-0.1215,-1.0175,0.3491,-0.622,0.019,-0.755,-5.25,21.899,-16.787,3
0.6644,-0.5273,0.3985,-0.3484,34.70617,-78.32326,196.39,175.92613,-0.082,-0.9833,0.3095,-0.658,-0.156,-0.763,-5.25,21.899,-16.787,3
0.6624,-0.5313,0.3964,-0.3486,34.529613,-78.84023,195.72308,176.09685,-0.0234,-0.9648,0.2553,-0.643,-0.371,-0.676,-5.25,21.899,-16.787,3
0.6612,-0.535,0.3939,-0.3483,34.2244,-79.273636,195.11664,176.2175,0.0312,-0.9545,0.2275,-0.545,-0.541,-0.563,-5.25,21.899,-16.787,3
0.6593,-0.5414,0.3886,-0.348,34.276134,-80.053764,193.9097,176.27443,0.0961,-0.9467,0.2275,-0.36,-0.439,-0.513,-5.25,21.899,-16.787,3
0.6579,-0.5436,0.3868,-0.3491,34.484352,-80.42152,193.30672,176.18297,0.0922,-0.9536,0.2055,-0.282,-0.162,-0.553,-5.25,21.899,-16.787,3
0.652,-0.5471,0.3844,-0.3572,35.51947,-81.50219,191.40785,175.4838,-0.0034,-0.8754,0.1069,-0.053,0.369,-0.697,-5.25,21.899,-16.787,3
0.6483,-0.549,0.3821,-0.3635,36.13417,-82.23273,189.96355,174.76588,-0.04,-0.8271,0.1088,0.008,0.236,-0.789,-5.25,21.899,-16.787,3
0.6439,-0.5537,0.3747,-0.372,36.782894,-83.46868,187.30354,173.38809,-0.0385,-0.7836,0.1328,0.045,-0.125,-0.942,-15.0,22.499,-11.837,3
0.638,-0.5612,0.3627,-0.3824,38.111835,-85.2098,183.47841,171.4155,-0.0683,-0.8525,0.1738,0.007,-0.043,-0.923,-15.0,22.499,-11.837,3
0.6309,-0.5667,0.3543,-0.3939,39.005344,-86.79166,180.06313,169.58226,-0.144,-0.8959,0.0927,-0.005,0.076,-0.867,-15.0,22.499,-11.837,3
0.6278,-0.5693,0.3502,-0.3986,39.503292,-87.488785,178.53561,168.7556,-0.1416,-0.9091,0.0795,-0.004,-0.007,-0.814,-15.0,22.499,-11.837,3
0.6264,-0.5705,0.3481,-0.4008,39.774597,-87.81223,177.80246,168.33253,-0.1337,-0.9096,0.1127,0.004,-0.012,-0.802,-15.0,22.499,-11.837,3
0.625,-0.5716,0.3463,-0.4032,40.05006,-88.12591,177.09404,167.91252,-0.1269,-0.916,0.1396,-0.005,0.044,-0.779,-15.0,22.499,-11.837,3
0.6172,-0.576,0.3414,-0.413,41.04254,-89.49634,174.35796,166.6419,-0.1801,-0.9829,0.1323,-0.142,-0.022,-0.36,-15.0,22.499,-11.837,3
0.6161,-0.5785,0.3402,-0.4121,40.809933,-89.77154,173.99803,166.85042,-0.1557,-1.0253,0.1171,-0.232,-0.255,-0.186,-24.6,20.549,-7.787,3
0.6176,-0.5864,0.3382,-0.4002,39.400078,-89.91936,174.54422,168.74768,0.041,-1.1157,0.1748,-0.21,-0.274,0.35,-24.6,20.549,-7.787,3
0.618,-0.5845,0.3448,-0.3966,39.188564,-89.457954,176.02196,170.05725,-0.0292,-1.2392,0.104,-0.161,0.335,0.526,-24.6,20.549,-7.787,3
0.6182,-0.5836,0.3476,-0.3954,38.722416,-89.2585,176.62415,170.54953,-0.0688,-1.2846,0.0517,-0.173,0.252,0.572,-24.6,20.549,-7.787,3
0.6199,-0.5823,0.3517,-0.3909,38.34607,-88.760025,177.95148,171.5504,-0.1074,-1.4238,-0.0034,-0.135,-0.101,0.681,-24.6,20.549,-7.787,3
0.6237,-0.5816,0.3541,-0.3836,37.214283,-88.09163,179.5192,172.59052,-0.0756,-1.5068,-0.0576,-0.059,-0.513,0.825,-24.6,20.549,-7.787,3
0.6266,-0.5815,0.3544,-0.3788,36.5149,-87.68603,180.38364,173.09332,-0.0415,-1.5107,-0.0537,-0.026,-0.745,0.888,-24.6,20.549,-7.787,3
0.6333,-0.5816,0.3537,-0.368,35.002884,-86.827644,182.12915,174.05061,0.0522,-1.3867,-0.0175,0.041,-0.988,0.922,-24.6,20.549,-7.787,3
0.6369,-0.5817,0.3529,-0.3623,34.18933,-86.38785,182.98993,174.49988,0.0654,-1.2949,0.0029,0.057,-1.057,0.907,-24.6,20.549,-7.787,3
0.6406,-0.582,0.3518,-0.3563,32.53019,-85.95504,183.8366,174.96199,0.0639,-1.2338,-0.0151,0.054,-1.148,0.913,-24.6,20.549,-7.787,3
0.6485,-0.5824,0.3484,-0.3444,31.81765,-85.08387,185.3857,175.68105,0.1445,-1.1142,0.0419,0.172,-1.248,0.836,-30.15,24.449,-1.637,3
0.6521,-0.5824,0.3467,-0.3394,31.214819,-84.69538,186.01987,175.92496,0.2104,-1.0644,0.0703,0.205,-1.078,0.835,-30.15,24.449,-1.637,3
0.6615,-0.5782,0.3468,-0.3282,27.779089,-83.29128,188.31613,176.59428,0.1552,-1.0151,0.08,0.331,-0.319,0.998,-30.15,24.449,-1.637,3
0.6774,-0.5662,0.3553,-0.3066,27.502508,-80.170296,193.83638,178.72314,0.0986,-0.9301,0.0444,0.227,-0.211,1.007,-30.15,24.449,-1.637,3
0.6796,-0.5638,0.3576,-0.3037,27.310211,-79.64559,194.76648,179.07129,0.0698,-0.8828,0.0498,0.237,-0.033,0.982,-30.15,24.449,-1.637,3
0.6815,-0.5612,0.3602,-0.3013,27.188768,-79.13417,195.66695,179.38448,0.0219,-0.8496,0.0556,0.252,0.104,0.962,-30.15,24.449,-1.637,3
0.6849,-0.555,0.366,-0.2979,27.22353,-78.09347,197.39569,179.82866,-0.0253,-0.7929,0.0766,0.357,0.337,0.887,-30.15,24.449,-1.637,3
0.6879,-0.5475,0.3724,-0.2969,27.498962,-77.05422,198.93692,179.93472,-0.0878,-0.7216,0.0664,0.49,0.556,0.793,-30.15,24.449,-1.637,3
0.6922,-0.5373,0.3804,-0.2954,27.621037,-75.644196,200.92528,179.98402,-0.2026,-0.7841,-0.0366,0.397,0.285,0.705,-27.75,32.549,-4.037,3
0.6961,-0.5323,0.3823,-0.2927,27.060925,-74.82523,201.89806,179.95454,-0.2114,-0.8056,-0.0595,0.413,-0.122,0.581,-27.75,32.549,-4.037,3
0.7004,-0.5298,0.3809,-0.2891,26.791489,-74.2522,202.38744,179.87654,-0.1674,-0.8432,-0.0488,0.28,-0.463,0.358,-27.75,32.549,-4.037,3
0.706,-0.5273,0.3781,-0.2836,26.226967,-73.56303,202.92868,179.84824,-0.1401,-0.852,0.0151,0.224,-0.33,0.356,-27.75,32.549,-4.037,3
0.7083,-0.5255,0.3779,-0.2812,26.054537,-73.180626,203.32921,179.89554,-0.1552,-0.8232,-0.02,0.143,-0.15,0.273,-27.75,32.549,-4.037,3
0.71,-0.5241,0.3775,-0.2801,26.060623,-72.929504,203.50995,179.81866,-0.1391,-0.8364,-0.0268,0.187,-0.091,0.131,-27.75,32.549,-4.037,3
0.7106,-0.5231,0.3776,-0.2803,26.206474,-72.817345,203.5612,179.70648,-0.1259,-0.854,-0.0234,0.222,0.037,0.079,-27.75,32.549,-4.037,3
0.7111,-0.5204,0.3787,-0.2826,26.645525,-72.63143,203.58232,179.31477,-0.1386,-0.8789,-0.0292,0.283,0.327,-0.003,-27.75,32.549,-4.037,3
0.7102,-0.5187,0.3805,-0.2854,27.054098,-72.61156,203.56369,179.0599,-0.1757,-0.955,-0.0258,0.188,0.333,-0.052,-27.75,32.549,-4.037,3
0.7099,-0.518,0.3814,-0.2867,27.262545,-72.60069,203.56087,178.94783,-0.1879,-1.0029,-0.0039,0.197,0.32,-0.03,-27.75,32.549,-4.037,3
0.7091,-0.5158,0.3839,-0.289,27.720196,-72.491516,203.72424,178.78148,-0.205,-1.0283,0.0546,0.177,0.426,0.079,-27.75,32.549,-4.037,3
0.7086,-0.5147,0.3854,-0.2902,27.952082,-72.437614,203.8317,178.7196,-0.2153,-1.0122,0.0522,0.154,0.45,0.059,-27.15,-25.487,-6.737,3
0.707,-0.5135,0.3879,-0.2929,28.43716,-72.47642,203.88008,178.60913,-0.2363,-1.0576,0.0698,0.06,0.403,-0.098,-27.15,-25.487,-6.737,3
0.7046,-0.5129,0.3897,-0.2973,29.078566,-72.70911,203.58426,178.30325,-0.269,-1.1259,0.1123,0.042,0.509,-0.306,-27.15,-25.487,-6.737,3
0.7031,-0.5127,0.3908,-0.2998,29.72804,-72.859055,203.41426,178.15376,-0.3134,-1.184,0.1088,0.009,0.55,-0.33,-27.15,-25.487,-6.737,3
0.7002,-0.5128,0.3916,-0.3055,29.919134,-73.268234,202.77385,177.66826,-0.3769,-1.1953,0.123,-0.007,0.421,-0.504,-27.15,-25.487,-6.737,3
0.6986,-0.5138,0.3915,-0.3075,30.038046,-73.5374,202.42854,177.55835,-0.3823,-1.312,0.1245,-0.142,0.264,-0.474,-27.15,-25.487,-6.737,3
0.6949,-0.5168,0.3916,-0.3107,30.2585,-74.143135,201.79509,177.56412,-0.3823,-1.4267,0.1972,-0.219,0.165,-0.235,-27.15,-25.487,-6.737,3
0.6914,-0.5233,0.3888,-0.311,29.781204,-74.98202,200.91237,177.89374,-0.2846,-1.1777,0.2333,-0.429,-0.429,-0.511,-27.15,-25.487,-6.737,3
0.6901,-0.5272,0.3861,-0.3108,29.59152,-75.451744,200.30786,177.99701,-0.1489,-1.0849,0.3251,-0.537,-0.572,-0.665,-27.15,-25.487,-6.737,3
0.6866,-0.536,0.3793,-0.312,29.394058,-76.64099,198.61113,177.96751,0.0878,-0.9199,0.3959,-0.67,-0.491,-0.876,-27.15,-25.487,-6.737,3
0.6844,-0.5405,0.376,-0.3129,28.960718,-77.28144,197.7072,177.94795,0.1083,-0.8662,0.3457,-0.681,-0.459,-0.895,-27.15,-25.487,-6.737,3
0.6814,-0.5494,0.369,-0.3122,28.534225,-78.37319,196.1923,178.09094,0.0585,-0.811,0.1972,-0.551,-0.844,-0.731,-31.5,-22.787,-5.687,3
0.6821,-0.5576,0.3583,-0.3085,27.65988,-79.164986,194.7174,177.9464,0.0966,-0.873,0.2021,-0.28,-1.327,-0.558,-31.5,-22.787,-5.687,3
0.6836,-0.5646,0.3455,-0.3072,27.493708,-79.96062,192.74681,177.08395,0.1899,-0.9946,0.1928,-0.001,-0.437,-0.429,-31.5,-22.787,-5.687,3
0.6822,-0.567,0.3413,-0.3104,27.838673,-80.48911,191.55519,176.40956,0.1386,-1.0078,0.103,-0.013,-0.069,-0.542,-31.5,-22.787,-5.687,3
0.6812,-0.5684,0.3392,-0.3124,28.385002,-80.802505,190.88199,176.04282,0.1225,-1.0034,0.082,-0.039,-0.055,-0.601,-31.5,-22.787,-5.687,3
0.6789,-0.5709,0.3346,-0.3179,28.696789,-81.48638,189.2924,175.04243,0.0737,-0.8867,0.1171,0.061,0.033,-0.823,-31.5,-22.787,-5.687,3
0.6774,-0.5722,0.3325,-0.3208,29.024652,-81.853355,188.48499,174.55986,0.0551,-0.9111,0.1083,-0.022,0.063,-0.788,-31.5,-22.787,-5.687,3
0.6749,-0.5738,0.3279,-0.3279,30.011726,-82.52017,186.73952,173.26048,0.0546,-0.9018,0.2348,0.174,0.208,-0.895,-31.5,-22.787,-5.687,3
0.6626,-0.5753,0.3212,-0.356,32.77133,-84.598076,181.62431,169.23238,-0.228,-0.895,0.1,-0.036,-0.499,-0.52,26.986,-19.787,-3.137,3
0.6626,-0.5821,0.3118,-0.3532,32.275974,-85.240585,180.20345,168.81038,-0.1337,-0.8847,0.1855,-0.177,-0.453,-0.192,26.986,-19.787,-3.137,3
0.6628,-0.5852,0.3102,-0.3491,31.697937,-85.38316,180.26694,169.36287,-0.145,-0.9179,0.144,-0.223,-0.299,0.1,26.986,-19.787,-3.137,3
