q0,q1,q2,q3,MotionDeg,Roll,Pitch,Yaw,accX,accY,accZ,gyrX,gyrY,gyrZ,magX,magY,magZ,0
0.4515,-0.4138,-0.5701,0.5475,9.134364,-86.65373,172.99033,182.44563,0.1074,-1.0732,-0.0009,-0.354,-0.046,-0.176,27.451,-14.569,17.769,16
0.6254,-0.6569,0.2147,-0.3621,20.9789,-95.28145,157.56125,157.89049,0.0532,-0.7866,-0.0405,0.305,0.962,0.349,1.31,-29.819,1.564,20
0.1533,-0.1974,0.5805,-0.7748,18.9091,-106.186775,168.29274,178.66934,0.1948,-0.7631,0.2905,-0.239,-1.093,0.715,-14.25,20.999,-8.237,25
0.7095,-0.4925,0.3141,-0.3939,8.3144,-75.16015,185.0183,156.58185,-0.0234,-0.9013,0.2148,0.301,-0.153,0.515,-14.4,-30.587,-1.487,21
0.712,-0.6909,0.1243,0.0132,7.397331,-85.43218,201.79257,200.67264,-0.1474,-0.7934,-0.081,0.099,-0.226,0.788,24.149,-14.387,-27.887,19
0.6423,-0.4048,0.4381,-0.481,8.65555,-74.53563,195.33406,155.43524,-0.1557,-1.0175,0.1845,-0.508,-0.656,0.307,11.174,-32.329,-22.976,4
0.5341,-0.2582,-0.546,0.5914,12.520998,-74.22434,155.32024,213.37613,0.0585,-1.0869,0.3393,-0.42,0.018,0.044,19.199,-6.137,-29.837,36
0.7845,-0.6044,0.1361,0.0231,13.388194,-72.5436,202.179,197.99486,0.0629,-1.0673,0.1865,-0.147,-0.726,-1.669,-21.137,-7.337,-5.55,37
0.3742,-0.0741,0.7109,-0.5907,19.806993,-67.734825,228.88731,150.75894,-0.5683,-0.8491,-0.0546,0.89,0.743,-0.29,16.079,2.377,-5.007,13
0.2965,-0.3233,0.5537,-0.7077,22.357422,-101.89269,167.47142,171.06514,-0.1337,-1.0839,0.187,0.19,0.179,0.253,16.349,-9.287,22.949,24
0.0386,0.0127,0.7382,-0.6732,17.2493,-84.39517,189.31537,172.59485,0.0102,-1.1049,-0.3579,-1.173,-0.176,-0.364,27.749,-31.037,-21.887,10
0.6258,-0.6934,0.2102,-0.2883,8.22969,-97.04387,163.6112,170.90424,0.2172,-0.7983,-0.0678,-0.02,-0.098,0.363,26.947,12.017,4.114,20
0.657,-0.4734,0.3927,-0.4358,6.0484996,-78.09567,189.50871,160.5481,-0.1694,-1.0961,0.3271,0.332,0.769,-0.594,-24.437,-14.837,20.999,32
0.1695,0.0075,-0.5742,0.8009,13.955656,-99.99816,162.4692,222.6862,-0.2094,-0.7558,0.2158,-0.11,0.348,-0.529,-13.337,-12.887,-27.887,49
0.3895,-0.3496,-0.4669,0.7127,9.864182,-100.9365,191.65112,214.37888,0.0327,-0.7563,0.4672,-0.79,-0.355,-0.713,-17.929,-4.513,-19.349,22
0.3663,-0.4119,0.3859,-0.7396,15.769024,-110.187546,153.04002,136.84262,0.2172,-0.8999,0.4916,-0.244,0.412,-0.463,29.849,-4.637,30.599,43
0.4262,-0.2819,-0.6218,0.5934,20.91349,-80.914085,159.24847,195.5558,-0.1777,-0.9331,0.1196,-0.022,0.236,-0.744,16.04,-15.537,24.689,12
0.4814,-0.4056,0.544,-0.5547,3.126804,-86.35117,187.8254,169.95259,0.0317,-0.6967,0.081,0.03,0.427,-1.843,2.549,27.749,-11.837,28
0.7872,-0.6158,0.0267,0.0119,6.870681,-75.92132,185.23692,184.76445,-0.041,-0.8935,0.2109,0.299,0.677,-0.554,-22.187,-2.237,-19.95,37
0.3653,-0.1222,0.6221,-0.6815,3.9247863,-81.02378,207.07863,143.23969,-0.1997,-0.9609,0.1362,-0.096,-0.008,-0.074,28.799,22.063,22.199,33
0.7023,-0.688,0.1064,-0.1482,12.458943,-89.25396,173.94743,172.99586,-0.1352,-1.3632,0.017,-0.144,-0.316,0.062,11.999,31.949,-11.537,19
0.4384,-0.4828,0.5026,-0.5673,10.639476,-96.314705,168.1044,178.44171,0.1215,-0.9926,0.0522,-0.211,1.63,-0.971,19.186,-7.487,3.013,2
0.4399,-0.389,0.4768,-0.6539,19.335373,-96.22708,171.78128,152.70715,0.0141,-1.1308,0.3696,-0.058,-0.146,0.149,-8.85,-30.137,-1.2,47
0.6461,-0.5882,0.2158,-0.4357,13.859929,-88.212746,158.21696,143.15219,0.4682,-1.0483,0.3598,-1.417,1.621,-0.256,-19.554,7.175,12.509,5
0.2464,-0.1341,0.6238,-0.7294,10.776019,-93.39046,190.77348,155.88882,0.0458,-0.9726,0.2285,0.32,0.661,-0.35,32.044,-25.94,2.254,45
0.0683,-0.2327,-0.6638,0.7074,20.199013,-93.36335,206.57393,153.1838,-0.0717,-0.7783,-0.0371,-0.256,-1.128,2.072,-27.887,1.363,7.649,40
0.3628,-0.1455,0.5985,-0.6992,8.916297,-84.658104,201.07114,142.43405,0.123,-1.1591,0.0747,0.193,-0.95,1.264,-20.722,-15.566,-7.364,35
0.5607,-0.4052,0.5265,-0.494,10.628812,-78.63277,199.31767,167.71849,-0.3593,-1.1953,-0.0175,0.023,-1.657,0.889,9.449,31.649,-12.887,30
0.8225,-0.5244,0.2092,0.0669,19.127563,-58.916794,213.8387,205.76457,-0.1357,-0.7685,0.1948,0.289,0.267,0.454,2.999,-10.037,31.799,50
0.3198,-0.2737,-0.5625,0.7114,22.485727,-97.84688,182.79146,199.92703,-0.0756,-0.9194,0.2153,-0.035,-0.031,-0.081,16.949,18.613,1.049,41
0.2166,-0.1096,0.6264,-0.7406,13.430314,-94.754745,190.46155,156.40312,0.1176,-1.0483,0.0693,-0.048,-1.256,1.041,23.257,-21.656,-10.963,45
0.6516,-0.3797,0.6011,-0.2638,16.858377,-54.520306,241.07257,188.20164,-0.6738,-0.8945,0.039,-0.003,0.358,-0.2,5.549,-29.987,11.849,48
0.3736,-0.4771,0.4805,-0.6339,17.702665,-104.993484,154.41722,177.65611,0.0429,-0.9326,0.0527,0.195,-0.092,-0.647,10.636,-11.537,-2.237,2
0.6482,-0.6923,0.1728,-0.2656,2.6676583,-95.02259,163.33607,166.68367,0.3154,-0.8603,-0.1406,0.39,-1.064,0.77,-9.639,13.067,14.314,20
0.111,-0.0796,0.6143,-0.7771,27.784979,-102.32118,181.17712,169.04738,-0.6064,-0.8647,0.1445,-0.459,-0.677,-1.044,-30.022,12.02,8.085,35
0.7227,-0.6688,0.1358,0.1089,13.896954,-79.16976,215.4982,214.8132,-0.4619,-1.123,0.1748,-0.3,0.069,0.021,-22.51,-14.378,-22.765,26
0.248,-0.1139,0.6181,-0.7371,11.489335,-93.1977,193.07901,151.56033,-0.2685,-1.268,0.166,-0.283,-0.229,0.063,-23.687,-11.687,19.499,33
0.2136,-0.3927,-0.5535,0.7026,16.961596,-105.67561,212.5979,158.35635,-0.0971,-0.7021,-0.0849,0.284,1.234,1.88,28.94,24.799,-25.847,12
0.5775,-0.4245,0.5353,-0.4467,17.974691,-75.9122,205.27399,174.32463,-0.0073,-0.5405,0.0039,-0.065,-0.143,0.889,21.662,31.539,-32.631,34
0.4742,-0.3689,0.6168,-0.5083,0.01839789,-77.789505,204.51227,177.44504,-0.2045,-0.9946,-0.0273,0.0,-0.014,0.005,-30.674,-13.747,29.155,34
0.5329,-0.4391,-0.4868,0.5349,27.718792,-86.471176,175.07022,195.58536,-0.0351,-1.6635,0.4252,-0.665,0.43,0.92,-15.737,-8.087,-19.337,46
0.3359,-0.2185,0.6111,-0.6825,5.511477,-89.403275,191.08359,157.72658,-0.2397,-0.9428,0.1796,0.165,0.159,-0.335,-10.337,2.713,-15.3,38
0.649,-0.562,0.2951,-0.4191,6.0938334,-86.494385,171.56473,156.4079,-0.0375,-0.8505,0.2441,-0.088,-0.089,-0.238,25.199,-14.987,26.999,27
0.6079,-0.4257,0.447,-0.4992,17.091017,-79.399124,190.93462,157.51457,-0.0898,-1.0532,0.2939,-0.3,1.152,-0.241,-23.237,-8.687,30.149,32
0.5834,-0.3219,-0.4686,0.5799,17.233593,-75.78219,165.39468,217.02162,0.3457,-0.8095,0.1474,0.218,-0.371,0.549,-12.45,28.949,1.664,36
0.3744,-0.1196,0.6276,-0.6719,5.760115,-79.33893,209.29202,143.42401,-0.1025,-0.8652,0.0917,-0.022,-0.851,0.685,18.449,-17.687,30.599,33
0.6962,-0.5124,0.4072,-0.2947,10.809648,-72.472145,206.10226,180.61287,-0.3212,-0.9125,0.102,0.028,0.633,-0.618,6.392,-6.426,-11.736,44
0.515,-0.3885,0.5259,-0.5541,20.14735,-83.793495,191.09306,162.984,-0.4531,-1.1113,0.1875,-0.611,0.481,-0.084,15.599,32.549,-17.087,30
0.5844,-0.4424,0.433,-0.5245,6.468833,-83.78985,183.90225,155.47957,-0.0664,-0.9311,0.3115,-0.037,-0.537,0.067,-9.0,-22.187,-6.9,47
0.6846,-0.4305,0.5331,-0.248,8.587944,-58.958176,231.93182,189.07054,-0.4521,-0.6284,0.0502,0.32,0.121,-0.248,27.449,31.649,6.599,48
0.7857,-0.5696,0.2251,0.0864,25.36436,-63.175,219.78441,212.72104,-0.1357,-0.788,0.1586,0.031,0.667,1.751,18.749,-7.337,17.999,37
0.333,-0.0644,0.6281,-0.7002,5.235401,-80.91085,210.5296,138.25462,-0.435,-0.916,0.1406,-0.303,-0.441,1.518,-5.247,30.228,-17.008,35
0.4363,-0.3628,-0.4517,0.6883,11.471987,-96.69761,189.06372,218.1633,-0.226,-0.6259,0.0908,0.639,0.708,0.342,13.499,30.899,20.113,46
0.4647,0.0029,0.573,-0.6749,20.231031,-62.989136,223.55219,119.83429,-0.0737,-0.9375,0.4692,0.056,0.51,-1.729,19.37,11.143,-14.76,35
0.5668,-0.3993,0.5175,-0.5012,10.957635,-78.5305,198.49184,165.02101,-0.3486,-1.1665,0.0273,-0.022,-1.3,0.808,-15.75,-15.887,-14.687,30
0.2715,-0.248,0.5732,-0.7322,27.3704,-100.33602,175.12451,163.97116,0.2963,-0.9458,0.1206,0.065,-0.566,0.613,-20.85,28.649,-2.387,25
0.7388,-0.6564,0.119,0.0952,14.878355,-78.53425,210.33202,209.69382,-0.4536,-0.7744,0.1171,0.051,0.167,-0.291,14.539,19.808,-19.465,26
0.5277,-0.4523,0.5047,-0.5119,9.072376,-85.80464,187.3672,171.0233,0.1494,-1.0126,0.0234,-0.149,-0.365,0.29,-13.35,11.414,-18.587,28
0.4222,-0.4188,0.4855,-0.6406,19.526573,-98.63071,167.72307,161.57666,-0.0859,-1.1259,0.1904,0.422,-0.882,0.759,-31.2,27.749,16.649,47
0.5014,-0.2987,-0.5,0.6396,5.545974,-83.09431,169.67877,217.73395,0.0961,-0.9667,0.3334,-0.102,0.513,-0.157,-16.05,-12.137,0.463,36
0.4558,-0.3708,0.3962,-0.7054,6.9778934,-95.922714,166.90207,128.83528,0.1992,-1.0429,0.4702,-0.1,-0.41,-0.096,29.849,29.849,3.164,43
0.0353,-0.0319,-0.6238,0.78,5.4692464,-102.63811,180.53792,182.24086,-0.0351,-0.7153,0.0507,0.323,-0.786,0.402,20.549,-10.937,27.149,7
0.7126,-0.6572,0.1462,0.1967,13.06312,-74.360664,226.26309,228.11705,-0.3461,-0.8686,-0.04,0.19,0.335,0.148,-4.06,2.572,-30.565,26
0.7136,-0.6772,0.179,-0.0044,6.57648,-82.28875,207.53044,204.61292,-0.2524,-1.0263,0.1381,-0.068,1.357,-0.546,-17.987,-2.837,-32.387,19
0.7357,-0.6769,0.0088,-0.0178,2.5433545,-85.23766,178.8205,178.48892,0.1508,-0.9487,0.142,-0.382,1.029,-0.609,-7.5,30.749,-8.387,14
0.5673,-0.4153,0.4586,-0.5432,1.5039698,-83.29793,186.41536,155.05594,-0.0874,-0.9687,0.2377,-0.05,-0.037,-0.015,-4.05,-22.187,-9.9,47
0.6186,-0.6669,0.1446,-0.3891,0.5459858,-95.132866,144.67802,140.65973,0.2636,-0.9619,0.1074,-0.176,-0.075,-0.115,-28.154,-26.117,-3.746,5
0.4823,-0.2751,-0.5438,0.6291,5.479448,-81.57704,163.83975,212.46419,0.1972,-0.9223,0.0336,0.363,0.769,0.789,19.949,-5.387,-28.337,36
0.7187,-0.5881,0.2543,-0.2698,8.760322,-80.25064,184.68277,171.2724,-0.0146,-0.9208,0.0131,-0.335,-0.43,-0.046,19.049,-22.487,24.299,8
0.5324,-0.35,-0.4555,0.6216,12.197417,-84.15109,175.73398,218.51547,0.0112,-0.8706,0.3334,-0.005,-0.701,-0.211,14.699,-17.837,-20.987,36
0.3217,-0.2368,-0.5867,0.7043,21.75833,-94.01994,175.80392,202.15218,-0.185,-0.7319,0.1489,0.008,0.215,-0.872,-23.387,-15.437,-5.85,41
0.3572,-0.0017,0.5953,-0.7196,13.201097,-76.33739,216.2743,124.04468,-0.5976,-0.7949,0.2954,-0.182,0.563,-1.932,-17.572,9.32,3.585,35
0.2327,-0.3725,-0.5912,0.6763,9.658535,-99.95855,205.20187,162.3013,-0.0766,-0.8159,-0.0356,0.284,0.873,1.388,-32.546,-22.437,20.789,12
0.6205,-0.4804,0.4565,-0.4191,23.782614,-78.89483,196.6261,172.14346,-0.1064,-0.998,0.1884,0.487,-0.564,-0.154,21.415,26.073,-9.024,44
0.5771,-0.392,0.4409,-0.5645,3.7227273,-81.72971,185.8255,147.65903,0.2368,-0.811,0.1762,1.19,-0.748,1.509,-31.65,-32.687,18.749,47
0.1199,-0.0692,0.7025,-0.698,32.691433,-88.81175,188.19418,172.0982,-0.4604,-1.2661,0.1215,-0.238,0.153,-0.106,-27.726,2.424,-6.824,11
0.7739,-0.6078,-0.1075,0.1412,21.007586,-76.851204,180.48645,188.23299,-0.1933,-1.2011,0.3657,-0.007,-0.178,0.515,-26.066,-3.416,-7.001,15
0.414,-0.3594,0.5312,-0.6458,10.385303,-93.83596,177.62776,160.86574,-0.2011,-1.4638,0.125,-0.53,-0.938,0.111,-7.05,25.799,5.549,42
0.6724,-0.5327,0.3235,-0.399,3.0760722,-81.55163,180.93236,160.44246,0.041,-0.9863,0.1293,0.057,-0.158,0.037,-0.6,20.414,-31.037,21
0.6798,-0.3539,0.602,-0.2236,16.309063,-48.81614,245.61035,188.46837,-0.4409,-0.6611,0.1132,-0.109,-0.791,0.087,-20.25,-31.487,25.799,48
0.6772,-0.5831,0.344,-0.2877,0.5930197,-81.12274,193.73445,181.14322,-0.1333,-1.0,0.0869,-0.009,-0.018,-0.011,11.065,28.623,-25.374,44
0.7164,-0.4261,0.4631,-0.3009,22.90917,-62.832237,217.26141,177.12863,-0.4404,-1.226,0.1733,-0.162,0.723,-0.255,-17.284,31.173,3.125,44
0.5831,-0.3489,0.5213,-0.516,16.152624,-74.32769,203.10748,157.98483,-0.2421,-0.9711,0.1801,0.087,0.541,0.005,8.699,10.813,30.149,30
0.3599,-0.1392,0.6077,-0.694,3.8810785,-83.844666,202.59708,143.35706,0.0986,-1.0971,0.0322,-0.024,-0.184,-0.516,-0.6,-15.587,-10.337,33
0.4595,-0.3028,-0.5164,0.656,0.44040018,-87.48512,173.10419,213.77728,0.0834,-0.956,0.2841,0.012,-0.139,-0.015,29.549,-1.937,30.299,36
0.6483,-0.6675,0.1109,-0.3488,7.481885,-91.5857,146.92355,141.25616,0.6665,-0.9877,0.1293,1.746,-0.833,1.483,23.782,12.875,16.859,5
0.6769,-0.5942,0.2809,-0.3312,29.01524,-85.03426,178.6566,167.82547,-0.0454,-1.1235,0.1132,-0.453,-0.528,-0.126,8.249,-13.037,18.599,3
0.4871,-0.5281,0.2809,-0.6362,38.161118,-101.678345,145.53267,125.86989,-0.2778,-1.2045,0.0761,0.118,1.966,-0.713,9.749,-9.587,-32.387,31
0.124,0.1318,0.7228,-0.6668,26.904203,-78.83615,222.20279,143.38412,-0.2773,-0.831,-0.1352,0.14,0.116,0.097,6.616,-7.049,-1.914,29
0.7744,-0.6298,0.0557,-0.0171,9.473026,-78.024475,186.1753,184.1495,-0.1293,-0.7949,0.2309,-0.225,-0.28,-0.114,3.449,6.613,16.799,37
0.732,-0.6302,0.2182,-0.1386,17.746641,-80.12123,194.85895,187.0724,-0.0361,-0.3305,0.0991,1.026,-1.279,1.512,24.149,-23.537,-19.037,17
0.1531,-0.3345,-0.5248,0.7676,17.974207,-112.31693,212.12802,158.02417,-0.1992,-0.8227,0.1093,0.049,-0.094,1.414,-30.737,30.599,11.999,41
0.4559,-0.385,-0.5986,0.5343,4.3536224,-82.351715,164.48674,182.6563,0.6821,-1.2866,-0.0161,-0.123,-1.252,0.267,-9.435,-29.869,5.019,16
0.2237,-0.0668,-0.5773,0.7824,21.354786,-97.824936,166.75568,219.19104,-0.2065,-0.9555,0.4316,-0.535,0.168,0.07,11.099,-9.287,4.664,49
0.7645,-0.4273,0.2587,-0.4073,52.762245,-64.73459,183.62381,145.72836,0.0141,-1.0341,0.3803,0.219,0.209,0.123,4.349,-28.487,6.613,39
0.4882,-0.4963,0.4461,-0.5622,34.491375,-96.44162,167.39456,166.1633,-0.4287,-1.0683,-0.1298,0.78,2.72,-1.552,30.149,30.449,-23.087,31
0.528,-0.439,-0.4574,0.5648,25.911186,-89.13045,181.23447,202.57832,-0.291,-1.3896,0.27,-0.633,-0.01,0.594,-24.437,-17.537,-19.037,46
0.7055,-0.5098,0.3319,-0.3633,7.6727133,-76.053055,188.88881,163.69095,-0.041,-0.9853,0.1787,0.033,0.215,-0.17,11.699,31.199,-11.837,21
0.2955,-0.1506,0.6297,-0.7024,18.625526,-88.83538,195.7454,153.77017,0.0068,-1.5283,0.4814,-0.043,1.141,-0.449,-4.487,-12.437,1.799,38
0.4867,-0.4697,0.4337,-0.5952,37.229256,-96.611626,166.78346,157.12604,0.1186,-1.2636,0.2612,0.586,0.838,-0.174,-14.85,25.649,-4.337,31
0.4463,-0.2861,0.5316,-0.6604,11.126015,-87.232605,188.69743,147.01413,0.082,-1.3129,0.2041,0.069,0.329,-0.123,13.199,-5.987,29.699,24
0.7809,-0.5582,-0.0232,0.2792,11.61468,-68.982185,202.64886,217.14499,-0.229,-0.9711,0.4013,-0.479,0.23,-0.339,-8.516,-14.516,-8.801,15
0.6297,-0.4029,0.4413,-0.4961,8.830705,-75.86709,193.84222,154.35179,-0.2368,-0.6933,0.1074,0.287,-0.133,0.614,31.503,5.895,23.007,4
0.4472,-0.5146,0.4588,-0.5697,7.7359414,-100.20746,160.95465,174.79128,0.103,-1.0307,0.04,-0.065,0.561,-0.533,-2.25,-9.587,29.549,2
0.0544,-0.2012,0.6965,-0.6865,8.802014,-88.87651,156.13156,203.78592,0.2519,-1.3535,-0.2485,0.03,0.072,-0.054,17.099,-4.637,-31.937,10
0.6277,-0.6178,0.2617,-0.3945,9.797591,-92.45736,163.54913,158.94464,-0.1464,-0.7299,0.1142,0.101,-0.198,0.435,18.149,-1.637,25.949,31
0.105,-0.1524,-0.6904,0.6992,21.057037,-91.16239,187.79678,172.53816,-0.1313,-1.0292,0.0957,-0.285,-0.084,-0.693,-32.237,29.263,4.199,40
0.4566,-0.3529,-0.5395,0.613,13.164723,-88.20544,174.11958,200.31647,-0.2006,-1.3515,0.1718,-0.276,0.506,-0.072,-1.129,-32.563,-21.299,22
0.2375,-0.1923,0.617,-0.7251,18.45084,-96.462006,181.39758,166.02748,0.2495,-0.9003,0.1191,-0.283,1.026,-0.282,-9.587,-17.987,9.749,38
0.4969,-0.3595,-0.5912,0.5235,5.7200985,-78.41709,157.08911,189.12428,0.0771,-0.8007,-0.1,0.271,0.0,0.489,-16.635,20.217,5.619,16
0.5064,-0.3687,0.4362,-0.6459,24.517784,-89.0063,177.06593,139.17152,-0.2807,-1.0473,0.4033,-0.18,-0.342,-0.277,-15.173,-28.647,-12.908,4
0.3908,-0.0767,0.623,-0.6732,9.47322,-75.33282,215.13536,136.58708,-0.1767,-0.9008,0.1679,0.164,0.428,0.151,-20.687,-10.937,23.849,33
0.3142,-0.1218,0.6149,-0.7128,5.6389894,-87.29917,199.88759,145.2789,0.1215,-0.9067,0.1884,0.329,2.703,-0.566,-4.65,-12.887,-13.637,33
0.3788,-0.3776,0.5715,-0.6221,18.225676,-93.315216,176.02257,175.16351,-0.0952,-0.642,0.0361,0.196,0.937,-0.266,24.962,-18.997,-29.031,34
0.2391,-0.1824,0.6178,-0.7264,18.61209,-96.035774,182.98167,164.17421,-0.1372,-0.8725,0.1206,0.043,0.827,-0.442,-29.237,-21.137,0.449,38
0.4273,-0.4049,0.3979,-0.7036,7.0623126,-101.76374,160.75873,135.48022,0.373,-0.8754,0.3217,0.415,-0.492,0.142,26.099,-25.187,-12.887,43
0.7387,-0.6569,0.1201,0.0906,15.264658,-78.67717,209.96518,209.1855,-0.414,-0.8295,0.185,-0.048,0.191,-0.105,7.339,18.458,-13.165,26
0.6202,-0.6226,0.2033,-0.4315,9.401319,-93.121704,151.95486,143.36057,0.2304,-0.8598,0.04,-0.425,-0.113,-0.437,5.782,13.175,-29.777,5
0.0543,-0.0251,0.5343,-0.8431,14.20485,-114.57033,181.26033,167.19319,0.3608,-1.0541,0.392,0.361,0.838,-0.381,0.613,-10.637,-24.887,49
0.6356,-0.4586,0.4667,-0.4095,10.146735,-75.47975,201.5583,171.49228,-0.143,-0.8374,0.0922,0.202,-0.194,-0.147,27.749,-24.587,-31.637,32
0.7347,-0.6775,0.016,-0.0299,2.264469,-85.376755,178.19821,177.63918,0.0864,-0.979,0.0571,-0.086,-0.329,0.166,-15.0,2.713,-9.737,14
0.3502,-0.2339,-0.5858,0.6923,52.70258,-91.1729,171.78635,205.50577,-0.1093,-0.9531,0.1147,0.847,0.68,-0.819,3.299,-19.037,22.499,40
0.4744,-0.4494,0.4955,-0.572,4.7285275,-92.780556,175.43907,168.18799,-0.0756,-1.3066,0.1235,-0.059,0.423,0.253,24.599,3.164,20.699,28
0.1638,-0.0937,0.6106,-0.769,21.149755,-100.18694,185.17947,160.4793,-0.2114,-1.2182,0.3144,-0.366,0.354,-0.019,-8.592,11.396,-3.445,45
0.6107,-0.4862,0.4291,-0.4542,9.324302,-82.44988,188.14056,165.92897,-0.1113,-1.2656,0.2036,-0.344,0.524,-0.014,-29.687,-20.387,29.099,32
0.1803,-0.1755,-0.6548,0.7126,30.956528,-94.38972,181.4847,183.36876,0.1586,-0.6889,0.2275,0.454,0.226,-1.911,-1.487,-4.487,1.349,40
0.7097,-0.6783,0.1092,-0.1556,1.80093,-87.91238,173.91797,171.9326,-0.1572,-0.9931,0.0878,0.033,0.553,-0.807,-29.987,-5.687,-22.337,19
0.4605,-0.4475,0.528,-0.5556,2.1899383,-90.94804,178.79263,175.43275,0.0073,-1.0727,0.0737,-0.11,0.454,-0.383,-9.15,16.963,-17.987,28
0.6551,-0.6397,0.1218,-0.3831,5.7426767,-88.687164,147.97517,137.41156,0.1489,-1.0043,0.1279,0.636,0.96,0.447,-30.554,-29.417,-4.946,5
0.4271,-0.3462,0.6286,-0.5499,7.8705993,-81.003784,198.3029,176.58025,-0.2514,-0.8481,-0.0317,0.075,-0.04,-0.351,-31.274,-13.447,30.805,34
0.379,-0.3219,-0.5054,0.705,2.5272393,-98.446205,186.32405,209.34966,0.0278,-0.9838,0.1279,-0.342,-0.239,0.029,31.499,26.863,-24.887,46
0.2151,-0.3551,-0.5743,0.7055,12.920285,-103.49012,206.27966,164.2017,0.0454,-0.6582,0.0322,0.413,1.888,2.027,27.89,-15.537,27.989,12
0.7718,-0.5707,-0.075,0.2699,8.380279,-72.9077,196.36835,210.77885,-0.0922,-0.727,0.1811,0.682,0.746,0.784,-19.316,-0.566,-4.301,15
0.3952,-0.4968,0.4681,-0.6146,14.127434,-104.401306,154.59654,176.84431,-0.1166,-0.875,-0.0712,0.277,0.855,-0.65,-5.85,-26.237,-22.787,2
0.6236,-0.5251,0.2821,-0.5055,38.38276,-86.76556,164.18227,140.73729,0.0815,-0.9443,0.4926,-0.324,0.317,-0.302,10.349,-11.537,-19.337,39
0.0225,-0.0086,-0.5484,0.8358,6.3758802,-113.33551,179.15564,185.35548,0.0693,-1.1376,0.3427,0.139,1.617,-1.047,-13.487,-1.637,-26.987,49
0.7201,-0.6901,0.0328,-0.0622,5.5552773,-87.62649,175.76736,175.11714,0.02,-1.3374,0.0048,0.011,-0.589,0.125,14.699,26.999,-16.637,14
0.76,-0.5591,-0.0445,0.328,8.05971,-70.533875,204.62721,222.3305,-0.1943,-0.8149,0.1323,0.524,-0.316,0.82,30.92,-11.066,4.249,15
0.3295,-0.1145,0.6442,-0.6805,1.6777165,-82.30567,206.45078,147.9324,-0.2666,-0.9663,0.1503,-0.01,-0.01,-0.022,13.848,-30.445,-25.018,35
0.4456,-0.0723,0.7584,-0.4701,13.923012,-52.457096,251.84457,157.39462,-0.6337,-0.9111,-0.0703,3.277,-0.085,-0.968,-29.976,23.73,4.936,13
0.3465,-0.0809,0.6247,-0.695,6.429463,-80.63867,209.7581,139.10223,-0.3676,-1.4531,0.1723,0.435,0.667,-0.705,24.149,-12.437,29.399,33
0.1069,-0.2214,0.5711,-0.7831,21.50841,-108.29518,159.6122,194.42723,0.0971,-0.8457,0.1982,-0.281,0.063,-0.049,14.849,-17.687,26.699,25
0.7038,-0.5058,0.3678,-0.3367,10.869639,-74.35417,196.55481,170.76418,-0.0434,-0.6997,0.061,0.569,-1.479,0.936,-1.084,5.823,-11.724,44
0.3681,-0.2447,0.6065,-0.6608,0.03030752,-87.561745,192.28102,158.66093,-0.1176,-0.9858,0.1503,0.005,0.016,0.002,-11.987,2.563,-15.15,38
0.6343,-0.5352,0.3753,-0.4125,15.946264,-84.24822,183.45831,167.22916,-0.0668,-0.8681,0.186,0.282,-1.086,0.618,3.415,10.923,-11.724,44
0.2387,-0.0553,0.6136,-0.7505,16.313126,-92.03694,199.21077,142.95935,-0.4614,-0.7856,0.0903,0.163,0.525,-0.492,27.749,-9.587,23.399,33
0.7758,-0.6279,0.0593,-0.0143,9.738145,-77.68948,187.03825,184.94502,0.041,-0.8212,0.2666,0.043,0.128,-0.337,3.449,6.613,16.799,37
0.3297,-0.1139,0.6442,-0.6805,1.61927,-82.25654,206.54688,147.83446,-0.2812,-0.9658,0.1455,-0.012,-0.021,-0.028,13.848,-30.445,-25.018,35
0.4226,-0.3545,-0.4305,0.7143,15.202648,-98.602585,191.81775,224.59892,-0.1,-1.2148,0.3427,0.19,-0.457,-0.6,-28.729,18.723,11.25,22
0.5156,-0.3866,-0.4648,0.6071,20.4854,-87.84311,179.10663,210.93182,-0.2358,-0.8154,0.2719,-0.083,-0.058,-0.47,24.357,20.373,11.4,22
0.2887,-0.1641,0.6244,-0.7069,4.001751,-90.55994,192.57904,155.76117,0.1762,-0.8417,0.2148,-0.016,0.705,0.241,11.842,-22.782,29.367,45
0.6717,-0.5254,0.3205,-0.4121,4.0972424,-81.34378,179.77165,157.85065,0.2426,-0.8061,0.4028,-0.225,0.297,-0.271,5.999,-25.637,-28.337,21
0.3335,-0.2189,0.6098,-0.6847,6.0239196,-89.79351,190.53714,157.78035,-0.2226,-0.9404,0.1782,0.153,0.11,-0.354,-10.337,2.713,-15.3,38
0.7828,-0.5988,0.1018,-0.1348,13.168623,-75.355965,179.81308,171.81895,0.0209,-1.1621,0.2792,-0.153,-0.582,0.877,-24.9,-15.437,-31.187,50
0.4296,-0.3972,0.396,-0.7076,8.26505,-101.0141,161.60811,133.49185,0.4462,-0.8339,0.3442,-0.292,1.396,-0.082,26.099,-25.187,-12.887,43
0.7645,-0.609,0.1134,-0.1781,28.882435,-77.88879,175.95335,167.18169,-0.0649,-0.9135,0.2407,-0.099,-0.645,0.87,28.199,-2.987,-1.35,37
0.5091,-0.372,-0.5251,0.5714,20.972933,-84.019104,169.31549,200.25815,-0.104,-1.2128,0.2612,-0.43,-0.354,-0.01,-23.029,24.423,-3.299,22
0.6189,-0.5164,0.34,-0.4843,13.051149,-86.602715,172.65004,152.03613,0.0727,-0.9438,0.2968,-0.027,-0.297,0.123,-16.05,8.863,-22.787,21
0.6643,-0.3329,0.6208,-0.2495,20.776884,-48.865883,246.37265,185.66772,-0.604,-0.809,0.1884,0.198,0.257,-0.457,-15.45,8.549,31.049,48
0.6927,-0.5724,0.2867,-0.3319,29.22979,-81.97171,181.67363,166.64491,-0.0971,-1.2548,0.312,-0.211,-0.314,-0.39,8.249,-13.037,18.599,3
0.3289,-0.1182,0.6429,-0.6815,2.135461,-82.68792,205.75238,148.28078,-0.2807,-0.9721,0.125,0.029,-0.004,-0.033,12.048,-30.745,-24.568,35
0.3585,-0.2229,-0.5741,0.7014,26.412642,-90.972145,170.8826,210.17123,-0.144,-0.7636,0.1328,0.43,0.776,-1.573,-7.937,-12.737,-3.3,41
0.3951,-0.3571,0.5071,-0.6775,26.534014,-97.87495,172.26564,156.33052,-0.1821,-0.9243,0.3813,-0.493,0.602,-0.535,-4.65,22.499,17.099,47
0.6357,-0.3837,0.5005,-0.445,7.3948145,-70.45038,207.51413,164.1984,-0.1655,-0.8579,0.5058,-0.23,0.441,-1.299,-28.037,-3.737,20.699,30
0.5493,-0.3169,-0.4764,0.6089,12.081442,-79.34449,168.32965,218.28188,0.0249,-0.9492,0.4091,0.004,-0.459,0.134,10.199,26.249,-2.087,36
0.6995,-0.5648,0.3091,-0.3099,27.758444,-79.86804,188.0493,171.74673,-0.2866,-0.9335,0.249,0.47,0.898,-0.741,11.099,-8.837,19.049,3
0.3591,-0.1086,0.6214,-0.6877,4.197644,-81.05675,207.71194,141.58107,-0.1918,-0.9848,0.2192,-0.213,-0.527,0.083,27.149,20.414,21.749,33
0.4485,-0.3554,-0.5467,0.6111,11.404635,-88.524765,174.41838,198.13048,0.2739,-1.1879,0.1123,0.528,-1.662,1.348,0.37,-27.913,-8.549,22
0.6248,-0.6138,0.2888,-0.3863,7.0479264,-91.99796,168.00963,164.59117,0.0566,-0.9707,0.2265,0.14,0.206,-0.641,27.149,1.213,27.149,31
0.6153,-0.4208,0.4341,-0.5057,7.1123753,-78.901764,189.78604,154.4653,-0.0903,-0.9067,0.1665,0.349,0.278,0.71,30.303,-4.141,1.407,4
0.5256,-0.3955,0.4997,-0.5634,19.754711,-84.892685,187.67413,158.78699,-0.3881,-0.8618,0.2167,-0.134,0.459,-0.539,-30.587,-1.787,32.249,30
0.2949,-0.1645,-0.6166,0.711,43.322006,-90.87453,167.5023,206.09091,0.1591,-1.2661,0.228,-0.686,-0.392,0.033,-20.537,-10.937,1.649,40
0.2775,-0.0047,0.6613,-0.6967,38.746197,-80.231445,215.5391,139.4055,-0.9418,-1.0454,-0.0566,1.96,2.164,-0.33,13.96,20.13,-6.013,13
0.5852,-0.4548,0.4707,-0.4786,15.88527,-81.745186,191.54716,166.651,-0.0698,-1.1723,0.1333,-0.25,0.182,0.244,-11.1,-10.337,-24.437,32
0.5326,-0.3888,-0.59,0.4657,12.227941,-74.64062,150.20285,183.37997,-0.038,-0.5439,-0.0361,0.411,-0.056,-1.11,-6.585,-32.419,10.119,16
0.618,-0.6845,0.1148,-0.369,4.5698776,-95.539925,141.35994,138.55829,0.3637,-0.7792,0.0883,-0.064,0.045,-0.03,-29.654,-27.617,-1.946,5
0.5939,-0.4315,0.4555,-0.5034,17.406536,-80.90474,190.05157,159.27806,-0.1601,-0.8007,0.2602,-0.053,-0.358,-0.116,-23.687,-12.887,-30.437,32
0.6967,-0.5838,0.296,-0.2932,6.4157567,-81.39017,187.02144,173.71333,0.0659,-0.8144,0.0605,0.229,-0.049,-0.082,22.949,31.799,-22.937,8
0.8089,-0.5586,0.1789,0.0385,13.4417095,-64.979515,208.44516,201.62462,-0.2084,-0.7695,0.1821,0.358,-0.107,1.071,22.799,-12.587,8.249,50
0.6819,-0.4296,0.5361,-0.2505,8.907373,-59.026028,232.09763,189.0421,-0.5175,-0.7563,0.06,-0.085,0.302,0.062,27.449,31.649,6.599,48
0.414,-0.4101,0.3854,-0.7153,9.751986,-103.93206,157.83557,133.30988,0.1186,-0.8583,0.3994,-0.05,0.159,-0.512,29.849,-4.637,30.599,43
0.6349,-0.4342,0.4196,-0.4818,4.699029,-77.79657,190.29193,155.88649,0.02,-1.0629,0.2377,-0.203,-0.541,-0.105,-19.783,1.709,-9.542,4
0.5662,-0.3939,0.5579,-0.4613,14.790716,-74.3732,208.24063,172.49664,0.227,-0.8286,-0.0004,0.205,-1.848,0.65,5.462,9.489,-6.231,34
0.306,-0.3362,-0.6316,0.6279,2.262103,-90.74935,184.18594,175.30164,0.1064,-1.1088,-0.2724,0.473,-1.223,2.169,-14.709,8.449,-0.047,12
0.8028,-0.5801,0.091,-0.1028,10.424535,-72.03475,182.34737,174.78307,0.0224,-0.8491,0.3007,-0.025,0.172,-1.006,5.549,-28.487,-29.387,50
0.7179,-0.5903,0.2536,-0.2678,8.801246,-80.45673,184.67732,171.60324,-0.02,-0.9003,0.0268,-0.176,-0.173,0.053,19.049,-22.487,24.299,8
0.5899,-0.4103,0.4297,-0.5466,4.1717377,-81.62033,185.1719,149.31516,-0.1684,-0.9038,0.0571,0.283,-0.002,0.989,-16.35,28.349,2.699,47
0.4793,-0.3834,0.6324,-0.4724,4.602212,-74.9082,210.15092,182.91864,-0.2314,-1.1489,-0.1005,-0.048,0.781,-0.073,-1.887,-1.447,-8.331,34
0.4079,-0.4033,0.5389,-0.6168,10.195506,-94.65577,173.94144,171.42302,0.124,-0.8198,0.1616,-0.02,-0.974,0.272,-22.95,0.313,-16.337,28
0.553,-0.7065,0.1116,-0.4271,10.396066,-101.99113,127.63861,127.3869,0.6035,-1.1684,0.0444,0.189,-0.357,0.84,23.782,12.875,16.859,5
0.3903,-0.1275,0.624,-0.6647,6.9112535,-78.28043,209.92679,143.26297,-0.1645,-0.9541,0.1157,0.143,0.153,-0.041,-28.487,-22.787,23.549,33
0.1577,0.1623,0.7458,-0.6265,21.80691,-70.815445,235.4363,138.55377,-0.017,-0.8662,-0.2089,-1.885,-0.847,1.024,-20.687,2.414,-17.237,29
0.1794,-0.1503,0.637,-0.7344,26.364733,-96.78082,180.78143,170.59898,-0.2514,-0.6767,0.186,0.065,0.833,-0.574,16.499,29.999,20.249,38
0.0518,-0.0462,-0.6246,0.7778,3.5985239,-102.33641,180.67513,183.33449,0.0366,-0.9838,0.1601,0.064,0.204,0.022,-12.45,-32.387,-12.887,7
0.6146,-0.505,0.3541,-0.4915,15.342589,-86.162186,174.34673,152.46933,0.0185,-1.0458,0.3208,-0.096,0.447,-0.228,-15.75,6.164,-21.287,21
0.5325,-0.7184,0.1099,-0.4336,12.866277,-104.61725,123.576324,125.59863,0.5737,-1.0219,-0.0815,0.784,-0.018,0.907,21.232,-31.661,20.459,5
0.5525,-0.6928,0.1027,-0.4517,12.551156,-99.59269,126.59097,121.07132,0.3125,-0.9643,0.145,-0.594,0.244,-0.701,32.482,15.275,8.609,5
0.0299,-0.2878,-0.6226,0.7269,54.353035,-95.45702,219.6066,135.87943,-0.6743,-1.208,-0.0966,-0.193,0.498,-0.081,-13.787,-4.937,-22.337,29
0.7789,-0.6236,0.0513,-0.0419,10.883264,-77.3675,182.604,179.87865,-0.0043,-0.9125,0.2021,0.456,-2.059,1.602,-18.587,-8.687,-14.25,37
0.5312,-0.4025,-0.4889,0.5627,24.764208,-85.26235,173.64987,202.17232,-0.017,-1.0126,0.3266,-0.248,0.363,0.223,18.749,-14.837,-5.987,46
0.5306,-0.3927,0.4934,-0.5662,11.8868885,-84.63205,187.4974,157.02951,0.0678,-0.9321,-0.0102,0.115,-0.078,0.849,-6.6,14.549,17.849,42
0.6159,-0.427,0.4681,-0.468,5.9417653,-77.100876,196.82045,163.20169,0.0585,-0.9326,0.061,0.168,1.385,-0.355,22.049,-21.287,27.899,30
0.1946,0.0117,-0.5996,0.7761,16.570446,-94.552895,157.77238,223.37608,0.0888,-1.3525,0.2875,-0.269,-1.295,-0.273,-11.837,-12.437,-25.337,49
0.6784,-0.3431,0.6179,-0.2003,18.50616,-45.729584,250.0175,190.33083,-0.7495,-0.8598,0.0034,0.4,0.698,-0.235,-9.6,6.749,30.449,48
0.3844,-0.338,-0.525,0.6798,3.677592,-96.879875,185.25012,202.40833,-0.0498,-1.0004,0.2363,0.099,0.042,-0.477,-26.537,-2.987,-30.737,46
0.0748,0.0257,-0.7341,0.6743,18.64313,-83.868195,162.1604,194.50728,0.0742,-1.1865,-0.2412,-0.606,-0.678,0.227,0.149,21.149,-10.187,10
0.6671,-0.5842,0.188,-0.4221,12.431538,-85.19628,157.9929,140.65134,0.7773,-1.0668,0.4062,-0.04,-0.827,0.167,-19.554,7.175,12.509,5
0.086,-0.0739,-0.6074,0.7861,6.441806,-104.14657,181.0731,186.9091,0.1337,-0.9755,0.1982,-0.19,-0.465,0.149,-12.45,30.449,-17.987,7
0.7639,-0.614,-0.0676,0.1863,16.698214,-77.81863,191.59062,199.45303,-0.3789,-0.935,0.3613,-0.3,0.493,-0.35,-29.066,-16.316,3.499,15
0.4332,-0.3866,0.4723,-0.663,21.426731,-97.18259,170.57321,151.41919,-0.3002,-0.8071,0.3041,-0.302,1.223,-1.047,-24.15,25.049,12.449,47
0.4329,-0.3691,-0.4301,0.7009,12.9713125,-98.20515,192.19728,222.46144,0.1542,-1.0556,0.4326,-0.088,0.473,-0.2,12.299,-27.587,19.513,46
0.4016,-0.3559,0.4241,-0.7294,13.508557,-101.50082,165.32516,134.80414,0.2319,-0.936,0.3442,-0.005,0.004,-0.175,3.749,12.164,-18.887,43
0.3483,-0.4788,0.4707,-0.654,13.0599985,-108.30717,149.59561,179.19221,0.1826,-0.8813,0.0439,0.078,0.387,-1.562,22.036,26.549,3.613,1
0.7949,-0.5882,0.1104,-0.0996,9.35871,-73.21403,185.20514,177.46773,-0.0161,-1.0678,0.3325,-0.205,-0.482,0.697,-11.25,14.563,12.149,50
0.108,-0.2084,-0.6641,0.7097,22.986921,-94.44953,196.81744,164.46469,0.1069,-1.1313,0.0209,0.24,-0.733,0.475,22.949,23.563,5.099,40
0.3314,-0.3415,-0.5118,0.7151,7.605548,-103.61911,193.69516,198.99768,-0.0532,-1.0302,0.2592,-0.055,0.096,-0.021,-8.329,2.387,-14.249,22
0.6121,-0.2625,0.5014,-0.5521,16.981304,-67.143875,206.81683,143.52039,-0.4995,-1.4335,0.3164,-0.534,0.063,-1.042,1.799,-24.887,-4.8,47
0.2658,-0.2442,0.5782,-0.7316,4.418239,-100.1325,175.27988,165.0144,0.1875,-0.8022,0.1279,0.11,-1.109,0.553,9.449,-23.987,32.249,25
0.4387,-0.1544,0.6914,-0.5527,7.904587,-66.65958,227.28458,157.11421,-0.4238,-0.8818,0.0522,0.436,0.084,-0.278,-32.32,-24.556,-14.596,13
0.4287,-0.3818,0.5209,-0.6316,9.568958,-93.83437,176.49373,162.04831,0.1118,-1.1782,0.1479,-0.059,-1.97,0.006,-10.35,23.549,9.749,42
0.2421,-0.1943,0.6151,-0.7246,17.772545,-96.40501,181.59529,165.41656,0.3237,-0.8247,0.1586,-0.191,0.667,-0.32,-9.587,-17.987,9.749,38
0.2985,-0.1798,0.56,-0.7515,16.474445,-96.80489,185.61075,145.86569,-0.1669,-0.8676,0.3481,-0.045,0.278,-0.835,7.004,29.114,-29.253,35
0.6579,-0.3807,0.597,-0.2561,15.980272,-54.01167,241.28589,188.52007,-0.6279,-1.0253,0.163,0.169,0.131,-0.234,4.799,29.999,12.149,48
0.7201,-0.6728,0.1554,-0.0672,7.745195,-84.42465,194.53229,191.81682,-0.0473,-0.9746,0.1098,0.195,0.673,-0.881,22.799,-15.587,-29.987,19
0.1204,-0.2089,0.5639,-0.7897,21.590097,-109.375984,162.70032,187.81807,-0.1127,-1.2563,0.2866,0.16,1.173,-0.149,24.449,-8.837,28.799,25
0.4674,-0.3738,0.5271,-0.6031,6.0613217,-88.74709,184.11739,160.59431,-0.1064,-0.9423,0.2124,0.158,-0.288,-0.591,2.699,-20.087,-4.5,42
0.6675,-0.5479,0.3037,-0.4023,1.1727263,-83.421394,176.6616,158.49272,0.0424,-0.9882,0.2153,0.053,0.163,-0.161,21.299,-1.787,16.949,21
0.7282,-0.6606,0.1301,0.1275,12.882261,-77.79455,216.26274,216.188,-0.4174,-0.7934,0.1088,0.036,0.033,-0.399,-21.31,-18.878,-20.065,26
0.7142,-0.6731,0.1906,-0.0195,10.145274,-81.902306,207.09549,203.64319,-0.0629,-0.9584,0.2265,-0.126,0.863,-0.834,29.549,-29.837,-16.337,19
0.4432,-0.0501,0.7232,-0.5271,14.907305,-56.8032,243.61053,149.31693,-0.6596,-0.8964,0.1835,0.366,-0.925,-1.113,-11.989,0.78,10.036,13
0.2432,-0.1609,-0.5974,0.7469,7.5510707,-97.618805,175.33882,203.23306,0.5004,-0.7851,0.5029,-0.356,0.028,0.109,30.666,27.74,20.911,18
0.1775,-0.2763,0.5755,-0.7488,12.405443,-105.70285,159.93994,188.2313,0.0419,-0.7412,0.1899,0.204,0.786,-0.473,15.449,-9.437,26.099,25
0.5986,-0.4834,0.3812,-0.5123,15.898922,-86.15774,176.40904,152.68213,0.1474,-0.9794,0.3266,0.142,1.624,0.116,20.699,-5.087,20.849,30
0.786,-0.5752,0.206,-0.0933,23.696058,-70.91823,199.6061,187.82544,0.4174,-1.8989,0.2431,-0.202,4.869,-2.141,22.499,27.599,-24.437,17
0.402,-0.2663,-0.569,0.6659,7.172237,-88.47339,170.28653,206.9199,0.0673,-0.9804,0.0644,0.188,1.742,0.48,-14.779,-31.363,-18.749,22
0.6907,-0.4006,0.4578,-0.3908,11.77016,-66.7147,208.44894,165.63496,-0.0366,-0.7978,0.0087,0.418,-0.185,0.668,-7.05,-2.837,-17.537,30
0.1444,-0.1777,-0.6799,0.6965,26.4561,-91.82712,185.79083,175.20116,-0.2421,-1.1445,-0.08,0.347,1.309,0.258,23.249,28.664,9.149,40
0.3286,-0.1187,0.6424,-0.682,2.2240374,-82.79437,205.58739,148.29375,-0.288,-0.977,0.1323,0.032,-0.032,-0.054,12.048,-30.745,-24.568,35
0.7202,-0.4844,0.2515,-0.428,44.321926,-73.52399,175.72559,144.47528,0.1083,-0.7705,0.3344,-0.518,0.256,-0.896,13.199,-14.087,-23.537,39
0.7883,-0.5867,-0.1123,0.1469,3.6511688,-73.97008,179.583,189.00282,-0.0927,-0.7998,0.2011,-0.454,1.831,-1.187,-28.95,28.199,-8.237,6
0.0703,-0.3177,-0.5873,0.741,62.50993,-101.3483,218.6207,137.94493,-0.5551,-0.9931,-0.2543,0.945,1.642,-0.448,-21.137,-1.487,-29.237,29
0.681,-0.3542,0.6082,-0.2016,16.953663,-46.9707,248.39769,190.70871,-0.8261,-1.0024,-0.0073,0.11,0.664,0.506,32.699,20.699,16.199,48
0.5528,-0.3965,0.522,-0.5143,13.33021,-79.80011,196.89003,164.7609,-0.312,-1.0332,0.1215,-0.019,-0.778,0.675,-15.75,-15.887,-14.687,30
0.6016,-0.4222,0.4935,-0.4647,4.5504427,-76.81524,199.76901,166.58469,-0.0615,-0.8374,0.1108,0.111,-1.283,0.99,14.699,-8.237,-31.787,30
0.1175,-0.1052,0.6217,-0.7671,26.167063,-101.3131,178.54465,172.92957,-0.3593,-1.0517,0.123,-0.74,-1.407,-0.308,-30.022,12.02,8.085,35
0.3863,-0.0598,0.6769,-0.6236,0.8280657,-69.679726,225.23698,143.47949,-0.4199,-0.9111,0.0737,0.032,0.116,-0.045,-18.876,-0.726,-14.774,11
0.7712,-0.5291,-0.0035,0.3537,15.435869,-64.11223,208.74274,228.97974,-0.2646,-0.7778,0.1611,0.513,0.189,0.903,18.32,-21.866,29.599,15
0.7483,-0.4236,0.2708,-0.4326,51.997437,-66.126686,182.97346,143.47104,0.0747,-0.8442,0.4472,-0.492,0.464,-0.78,26.099,30.149,-18.437,39
0.2666,-0.3254,-0.559,0.7145,22.212257,-103.44226,196.33458,182.56506,-0.0209,-0.8569,0.2094,0.511,2.475,-1.823,14.099,-6.737,22.649,41
0.6094,-0.3954,0.4345,-0.5323,6.0327544,-78.25066,189.48445,149.5256,-0.1147,-1.0322,0.0874,0.462,-0.158,0.741,-16.35,28.349,2.699,47
0.6017,-0.4392,0.471,-0.4723,20.206608,-79.13903,194.79498,164.91321,0.0698,-0.7509,0.1186,0.165,-1.442,2.032,5.249,-21.437,-27.287,28
0.6643,-0.5804,0.2875,-0.3728,0.08341201,-85.81173,174.98984,162.46959,0.0625,-1.0039,0.1777,0.0,0.006,-0.012,11.399,-1.787,19.199,27
0.568,-0.3484,0.5079,-0.5458,8.430769,-77.15421,198.00891,154.18312,-0.1787,-1.0493,0.2368,-0.11,-0.012,-0.214,-26.55,-8.987,23.399,47
0.7144,-0.6835,0.1491,0.0,6.6742177,-84.00454,203.57756,201.66463,-0.06,-1.2451,0.0874,0.226,0.706,-0.599,-23.987,-7.187,26.399,19
0.6222,-0.6968,0.2235,-0.2778,9.0786705,-97.14058,166.60829,175.5159,0.1357,-0.996,-0.0644,0.093,0.013,-0.032,-30.189,-9.569,3.364,20
0.0381,-0.2609,-0.6528,0.71,21.345968,-92.78457,215.19936,142.9538,-0.2011,-1.0249,0.1635,0.708,0.495,-2.525,15.149,-17.987,25.349,40
0.5039,-0.5124,0.4064,-0.5641,27.685545,-97.7086,163.24391,159.43929,0.3564,-1.6123,0.0288,-0.218,-4.316,1.959,13.649,23.399,-9.437,31
0.7519,-0.6564,0.0588,0.0154,5.370841,-81.57132,190.97191,190.08218,-0.1079,-0.9873,0.0664,-0.053,0.037,-0.292,-8.7,-6.437,-10.037,14
0.4316,-0.3147,-0.5417,0.6489,8.006969,-89.44508,174.42172,205.73697,-0.0268,-0.7309,0.2573,-0.215,0.914,0.025,-14.779,-31.363,-18.749,22
0.2248,-0.1203,0.6492,-0.7164,22.997906,-91.5219,192.10117,160.06537,-0.1176,-0.7509,0.2846,-0.095,-0.37,-0.62,8.549,-8.537,10.649,38
0.743,-0.4884,-0.3696,0.2694,41.943645,-67.74352,154.20357,183.26912,0.0063,-1.332,0.2675,-0.6,0.024,0.339,-8.503,-27.098,-13.877,23
0.1213,-0.0918,-0.5618,0.813,13.678582,-109.011154,181.10013,196.21031,-0.0922,-0.8784,0.5019,-0.323,0.632,-1.028,-25.337,23.263,-23.987,49
0.6912,-0.5497,0.3071,-0.3545,12.132509,-80.5288,183.30315,164.82216,-0.0952,-0.8632,0.2421,0.086,0.324,-0.003,14.099,-27.287,29.549,8
0.0588,-0.0779,-0.6356,0.7657,2.0194774,-100.65276,184.32602,178.73724,-0.0629,-0.997,0.2041,-0.041,-0.102,-0.088,20.699,-3.887,28.799,7
0.7918,-0.5767,0.0887,-0.1801,19.027222,-72.77089,174.16046,163.60501,-0.1386,-0.8774,0.3378,-0.026,0.19,-0.528,-20.1,-14.987,-31.337,50
0.483,-0.5236,0.2825,-0.6422,39.562294,-101.85041,145.6117,125.20795,-0.228,-1.1562,0.1621,0.149,1.643,-0.702,9.749,-9.587,-32.387,31
0.3806,-0.2822,-0.5647,0.6756,29.565536,-91.78252,175.37714,203.81163,-0.2143,-1.3891,0.2124,-0.34,-0.557,0.439,-31.337,-16.637,-1.35,41
0.6724,-0.4025,0.5736,-0.2379,10.825833,-54.86121,239.36024,190.37393,-0.5493,-0.9506,-0.1425,-0.609,-1.059,0.466,5.549,-29.987,11.849,48
0.7986,-0.5741,0.0949,-0.1534,15.362065,-72.06198,177.87234,167.9921,-0.0458,-0.9794,0.2968,-0.25,-0.348,0.537,-13.95,9.914,12.899,50
0.3208,-0.0708,0.626,-0.7071,5.1747966,-82.85016,208.07828,139.50414,-0.4042,-0.9072,0.1562,-0.228,0.036,1.464,-5.247,30.228,-17.008,35
0.7809,-0.609,0.0876,-0.1072,9.507341,-76.22396,180.57582,174.36957,0.0161,-1.1582,0.1953,0.031,-0.44,1.083,-9.15,-29.387,-24.737,50
0.4685,-0.2593,-0.4824,0.6931,7.583458,-85.36246,172.43298,227.63948,0.4291,-0.7773,0.1425,0.045,0.964,0.338,23.999,-17.987,-31.937,36
0.6355,-0.6099,0.201,-0.4284,9.181663,-90.59674,154.38245,142.76575,0.6538,-1.0009,0.5068,-0.292,-1.564,-0.168,-9.054,-32.561,-5.79,5
0.3887,-0.5179,0.4325,-0.6272,15.6840725,-108.73669,147.88518,173.29744,0.2729,-1.0654,0.1411,0.205,-0.613,-0.852,-16.8,-29.387,-19.487,2
0.2859,-0.0558,0.6216,-0.7271,12.193764,-86.302124,205.32507,139.39401,-0.2465,-0.8632,0.1625,0.329,1.29,-0.021,18.299,15.013,23.849,33
0.6005,-0.4165,0.4586,-0.5054,18.596407,-79.25883,192.02629,157.70784,-0.2724,-0.7827,0.1567,-0.202,0.381,-0.096,-9.45,-29.687,-22.037,32
0.542,-0.3783,0.4973,-0.5617,11.959794,-82.38582,190.6979,155.7358,0.186,-1.2016,0.187,0.23,0.248,0.408,-6.6,14.549,17.849,42
0.6414,-0.462,0.4026,-0.4614,8.683993,-79.08603,188.2569,158.29524,-0.0009,-0.8559,0.3041,0.099,-0.35,0.049,-26.537,-15.587,22.499,32
0.0301,-0.034,-0.5616,0.826,6.600675,-111.53189,181.87505,182.08951,0.0913,-0.7392,0.2495,0.838,-0.091,1.017,21.749,-14.987,12.613,49
0.4142,-0.3516,-0.5972,0.5898,18.414932,-86.49124,171.19585,187.43497,-0.1835,-0.9023,0.0898,-0.004,-0.038,-0.186,-16.343,-7.548,-16.74,12
0.3115,-0.5459,0.4554,-0.6304,12.338027,-111.90863,135.5002,199.47224,0.5151,-0.9975,-0.1303,1.103,-1.408,1.824,-23.55,30.149,-15.437,1
0.2827,-0.1379,0.6094,-0.7276,8.818996,-91.8079,193.46725,149.82616,-0.1806,-1.0498,0.1396,0.18,0.799,2.273,-5.247,30.228,-17.008,35
0.3097,-0.1051,0.6336,-0.701,8.016373,-85.06509,203.57275,146.32704,-0.2558,-0.8046,0.102,-0.17,-0.016,0.701,25.594,25.646,8.554,45
0.4128,-0.3521,-0.598,0.5897,18.132614,-86.53741,171.34258,187.12497,-0.184,-0.9155,0.0903,-0.18,-0.117,0.038,-16.343,-7.548,-16.74,12
0.3508,-0.4113,0.3936,-0.7434,17.357048,-111.93399,152.1256,140.8321,0.2343,-1.0234,0.5395,-0.356,0.258,-0.229,27.899,-5.237,-32.537,43
0.1678,-0.0845,0.6161,-0.7648,21.81038,-98.96431,187.23434,158.8089,-0.2343,-1.3447,0.2719,-0.458,0.751,-0.214,11.542,-26.532,-32.569,45
0.5881,-0.4629,0.422,-0.5115,9.723278,-84.806946,182.15103,157.23712,-0.3388,-1.0908,0.125,-0.186,-0.671,-0.131,-10.8,-22.937,-7.65,47
0.2376,-0.1814,0.6016,-0.7406,20.39337,-98.145996,181.62805,161.8472,-0.1704,-1.4023,0.0478,-0.191,1.203,-0.265,-12.45,10.363,-20.987,25
0.6772,-0.346,0.6156,-0.2062,18.428795,-46.502842,249.17532,190.01108,-0.8125,-1.0825,0.0156,0.44,0.855,0.192,32.699,20.699,16.199,48
0.5932,-0.4243,0.4489,-0.5161,18.519215,-81.0597,188.75114,156.38582,-0.1284,-0.7431,0.2519,-0.108,-0.423,0.09,15.899,25.649,-15.587,32
0.2676,-0.0803,0.6566,-0.7005,12.572593,-85.53749,203.987,149.99536,-0.4565,-1.4111,0.1728,-0.023,0.192,-1.097,10.307,14.696,-14.545,45
0.6993,-0.7047,0.1122,-0.0405,0.3618463,-89.21866,191.61887,191.55344,-0.102,-1.0131,-0.0053,-0.015,0.013,0.002,-28.487,5.113,27.599,19
0.2988,-0.2675,-0.5683,0.7183,19.351194,-98.9914,184.22726,197.27103,-0.0976,-1.0297,0.2431,-0.164,-0.679,0.392,12.149,17.113,0.149,41
0.4599,-0.3618,0.6216,-0.5206,2.5501938,-78.6552,202.85138,177.21593,-0.2563,-0.9736,-0.0063,0.059,0.297,-0.111,-32.024,-12.697,31.255,34
0.296,0.0544,0.7835,-0.5435,0.04853205,-58.581314,248.64325,147.64561,-0.5361,-0.8344,-0.2363,-0.016,0.001,-0.017,-1.787,-1.187,32.099,29
0.4236,-0.393,0.3895,-0.717,9.065951,-101.55957,160.8823,131.0759,0.4277,-0.7343,0.3793,0.25,0.488,0.548,-23.087,-1.187,-25.787,43
0.4009,-0.2926,0.681,-0.5383,13.8767185,-75.52184,208.762,176.96494,-0.2797,-1.1411,-0.1264,-0.018,-1.287,0.156,-14.937,-13.147,-7.131,34
0.6773,-0.5784,0.285,-0.354,2.5936291,-84.20865,177.70021,164.20114,0.0385,-1.0112,0.1889,0.128,-0.213,-0.123,0.449,21.613,-32.687,27
0.3077,-0.2277,-0.5732,0.7244,18.465578,-96.49147,177.88617,204.62573,-0.0673,-0.664,0.2905,-0.417,0.804,-0.147,-32.62,-32.546,18.361,18
0.7172,-0.6444,0.1513,0.2174,15.005294,-71.706535,227.7524,230.5044,-0.3559,-0.8408,-0.0102,0.223,0.004,0.452,-27.61,27.458,-12.565,26
0.823,-0.4918,-0.049,0.2797,23.575855,-61.00785,194.66562,213.73473,-0.0166,-1.0278,0.5327,-0.006,0.216,-0.269,-1.65,-19.937,18.599,6
0.6903,-0.5463,0.3117,-0.3573,12.358271,-80.33246,183.7869,164.83563,-0.1523,-0.8906,0.2939,-0.11,0.101,-0.035,13.649,-29.837,30.599,8
0.3682,-0.2448,0.6065,-0.6606,0.052513786,-87.548065,192.29372,158.67897,-0.1103,-0.9936,0.1474,-0.007,-0.01,0.0,-11.237,3.613,-15.15,38
0.7115,-0.5403,0.2938,-0.3397,10.368366,-77.966415,184.69783,164.06091,-0.0336,-1.2495,0.2348,-0.056,-0.634,0.28,26.399,-15.587,19.499,8
0.7359,-0.6747,0.0275,-0.0477,4.0673933,-85.07585,177.48322,176.50438,-0.0878,-0.7778,0.103,0.051,1.492,-0.623,20.399,-24.887,28.499,14
0.3901,-0.0967,0.6091,-0.6836,7.86914,-77.78497,210.94963,136.68066,-0.0561,-0.9565,0.1547,0.022,0.402,0.012,-4.972,-9.566,-16.664,35
0.3298,-0.3683,0.4286,-0.7562,20.711676,-110.9609,157.21265,145.23993,0.0576,-1.1396,0.5488,-0.238,-0.259,-0.133,-28.937,1.063,-25.037,43
0.5637,-0.4415,0.4415,-0.5405,9.8081455,-85.83486,181.9243,155.83237,0.0346,-1.0703,0.1748,0.04,-0.661,0.089,16.953,22.095,22.707,4
0.1991,-0.094,0.6249,-0.7489,17.473175,-95.83104,190.28111,156.2713,-0.2578,-0.7514,0.2104,0.322,0.845,-0.384,3.557,15.296,-9.595,45
0.7605,-0.5633,-0.0187,0.3221,9.887366,-69.65597,207.5486,224.1037,-0.4487,-1.2993,0.4296,-0.247,0.512,-0.56,-24.266,-20.216,-5.201,15
0.5246,-0.5781,-0.3235,0.5345,17.816607,-101.19607,207.89215,207.62317,-0.0507,-0.9282,0.0761,0.002,0.61,0.093,-17.828,-8.086,-0.964,23
0.8159,-0.549,0.1777,-0.0335,11.148572,-65.85944,201.49919,191.50215,-0.1445,-0.9184,0.4101,0.096,-0.367,-1.841,4.649,-6.737,27.449,50
0.6482,-0.3484,0.6103,-0.2931,20.878757,-54.078247,240.22057,183.27237,-0.5317,-0.6513,-0.0527,-0.166,-1.088,-0.025,-28.937,-25.337,15.149,48
0.1879,0.0071,-0.5783,0.7938,16.052843,-97.66532,160.50708,225.0293,0.0351,-0.9638,0.5375,-0.472,0.647,-0.138,-11.837,-12.437,-25.337,49
0.0632,-0.3242,-0.605,0.7243,60.267673,-97.90465,220.79918,135.76917,-0.4697,-0.8359,-0.2363,0.43,0.816,-0.485,-26.537,-23.537,-19.787,29
0.6894,-0.5462,0.3136,-0.3576,12.385788,-80.37654,183.96437,165.0544,-0.2509,-0.9609,0.248,-0.071,0.105,-0.017,13.649,-29.837,30.599,8
0.1012,-0.1191,-0.6047,0.7809,23.771326,-104.350395,185.87361,182.13588,-0.1542,-0.8686,0.2314,0.46,0.526,-0.468,-16.337,3.013,-15.3,40
0.3154,-0.2657,-0.5663,0.7135,21.813093,-97.64621,182.06465,200.12805,-0.2465,-1.018,0.2578,-0.47,0.373,0.349,-32.62,-32.546,18.361,18
0.2953,-0.2643,-0.5768,0.7142,19.52686,-98.26687,183.53552,195.85062,-0.186,-0.9194,0.2543,0.077,0.442,-0.302,-20.537,-1.937,-14.25,41
0.6457,-0.529,0.3068,-0.4571,7.631389,-84.75813,172.01091,150.85617,0.3183,-0.895,0.2778,0.25,-0.716,0.928,-14.85,29.099,-1.487,21
0.3949,-0.3892,0.5384,-0.6344,13.593898,-95.77429,172.97125,169.4964,-0.1157,-1.5361,0.0307,-0.4,0.253,0.455,-27.3,-8.087,-14.987,28
0.6115,-0.663,0.24,-0.3588,16.893223,-96.88916,159.44992,164.0942,0.1816,-1.4746,-0.0205,-0.621,-0.47,-0.16,-11.889,-30.569,-6.385,20
0.7778,-0.6094,-0.0946,0.1204,0.1612124,-76.56579,179.96149,186.7115,0.0034,-0.9868,0.2524,-0.017,0.001,-0.016,3.899,-11.687,15.899,6
0.7099,-0.5378,0.2333,-0.39,38.79129,-78.50941,172.30487,149.6608,0.1245,-1.1215,0.2875,0.233,0.061,0.045,17.699,-5.387,28.499,39
0.5877,-0.4477,0.4209,-0.5261,6.247789,-84.193855,182.1782,153.97662,0.2382,-0.9985,0.2124,0.152,-0.62,0.457,30.303,-4.141,1.407,4
0.1303,-0.0691,0.695,-0.7036,31.769106,-89.553116,189.36513,170.02048,-0.4018,-1.1108,0.1367,-0.233,0.267,-0.196,-30.576,1.074,-9.974,11
0.5392,-0.4643,0.5323,-0.4584,16.750141,-81.465385,196.8491,179.99553,-0.3945,-1.2968,-0.1689,-0.315,1.106,0.264,21.962,-17.497,28.405,34
0.7916,-0.5695,0.2021,0.0891,21.53622,-63.9876,216.7401,211.08293,-0.3041,-1.2197,0.3349,-0.063,0.333,-1.335,0.164,-23.537,-7.2,37
0.682,-0.5959,0.2602,-0.3344,6.2214284,-85.07012,175.66971,164.39594,0.0468,-0.9394,0.0815,0.126,-0.27,0.027,11.999,-7.187,21.749,27
0.6619,-0.5673,0.3499,-0.3426,7.5195613,-82.86426,187.67116,174.22594,-0.2128,-0.9609,0.1718,0.134,0.772,-0.496,8.965,28.023,-25.974,44
0.6734,-0.3601,0.6,-0.2381,16.344124,-50.591488,243.922,187.83742,-0.6132,-0.8002,0.0244,-0.152,-0.225,-0.036,-31.487,14.113,-3.0,48
0.7392,-0.4323,0.2742,-0.4373,49.9863,-67.76323,182.1193,143.54294,0.0595,-0.996,0.5493,-0.877,0.124,-0.416,26.099,30.149,-18.437,39
0.38,-0.3559,0.5544,-0.6491,10.289165,-94.90342,175.88126,167.53226,-0.1425,-0.9335,0.2377,-0.266,-0.114,0.09,15.449,-2.987,19.199,24
0.3394,-0.3437,0.4325,-0.7613,21.29477,-108.40861,161.22409,140.09193,0.0185,-0.9575,0.4838,-0.072,0.058,-0.286,-7.95,-16.637,14.713,43
0.6993,-0.7045,0.1135,-0.0407,0.38879257,-89.1694,191.79788,191.71701,-0.1157,-1.0151,-0.0219,0.021,0.03,0.018,-28.487,5.113,27.599,19
0.7878,-0.5785,0.0867,-0.1924,19.914335,-73.18607,172.51791,161.657,-0.143,-0.8554,0.3325,-0.145,-0.018,-0.112,-20.1,-14.987,-31.337,50
0.1837,-0.4487,-0.5382,0.6893,20.21013,-105.75359,224.93011,140.89227,-0.2968,-1.1972,-0.2709,-0.419,0.265,-0.042,27.89,-15.537,27.989,12
0.2766,-0.1649,0.6093,-0.7244,5.4637995,-93.418976,189.33298,154.84618,-0.2192,-0.9921,0.1259,0.171,0.017,-0.346,9.292,-20.532,25.767,45
0.7799,-0.6178,0.0888,-0.0458,13.654248,-76.49284,187.6787,183.55885,0.0527,-0.9833,0.1625,-0.018,-1.441,0.393,1.799,0.914,13.199,37
0.2523,-0.2103,-0.5818,0.744,11.495044,-100.04296,181.79619,198.46251,-0.081,-0.7407,0.0903,0.117,0.609,-0.173,30.216,-20.246,21.661,18
0.6156,-0.6777,0.1322,-0.3797,2.8739014,-95.865265,142.82245,140.03601,0.3588,-1.0346,0.0092,0.081,-0.506,-0.089,-26.204,-25.967,-2.396,5
0.5404,-0.3974,-0.5086,0.5396,26.79318,-82.489,168.17229,198.45825,-0.2163,-0.9941,0.1962,-0.175,0.319,0.175,-16.187,-5.837,-21.437,46
0.7135,-0.6835,0.0298,0.1509,6.0379767,-85.162796,206.33003,208.18727,-0.2397,-1.0068,0.1806,0.199,0.629,0.104,22.981,-14.84,23.093,26
0.3681,-0.2444,0.6066,-0.6607,0.027543098,-87.53369,192.33522,158.63942,-0.1206,-0.9868,0.1459,0.0,-0.01,-0.007,-11.237,3.613,-15.15,38
0.5105,-0.2334,0.5833,-0.587,28.220243,-73.09173,209.75456,149.55132,-0.1791,-0.9648,-0.2788,-0.051,-2.645,0.468,30.46,22.674,8.776,11
0.5209,-0.4552,-0.4248,0.5837,26.436417,-92.40163,188.30246,207.53053,-0.2392,-0.8535,0.3081,-0.099,0.142,-0.036,16.649,15.164,-2.987,46
0.3068,-0.0832,0.6251,-0.7128,6.9232507,-85.15424,204.81293,142.05865,-0.1645,-1.0551,0.207,-0.068,-0.439,0.12,23.849,19.213,24.299,33
0.6377,-0.4612,0.4077,-0.4628,9.102889,-79.27612,188.57529,158.8223,-0.1606,-0.997,0.2929,0.079,0.061,-0.066,-26.537,-15.587,22.499,32
0.2908,-0.2162,0.5992,-0.7138,11.64989,-94.88818,183.84167,160.04851,0.0532,-0.7236,0.1767,-0.057,1.033,0.124,-13.187,0.914,-11.1,38
0.7088,-0.5096,0.4077,-0.2673,11.265432,-70.210884,209.81358,183.13586,-0.247,-0.9287,0.0927,0.008,0.286,-0.607,6.392,-6.426,-11.736,44
0.6985,-0.6109,-0.2585,0.2683,45.7139,-83.529785,176.59166,186.0861,0.038,-1.1533,0.206,-1.004,-0.651,0.615,25.358,3.6,6.985,23
0.6971,-0.4994,0.3421,-0.3841,9.048586,-76.27752,188.4249,161.73895,-0.0483,-0.9116,0.1923,0.179,-0.248,0.57,31.949,-12.887,27.149,21
0.618,-0.3744,0.4384,-0.5343,6.9784245,-75.842575,192.1261,147.7356,0.0917,-0.9409,0.1938,0.282,0.688,0.18,-16.35,28.349,2.699,47
0.5876,-0.498,0.3987,-0.4976,14.277772,-87.5035,177.38564,158.91594,-0.1489,-1.0693,0.0966,-0.154,-0.062,-0.122,-17.85,-23.987,-3.45,47
0.2921,-0.1864,0.6518,-0.6745,12.535864,-87.544785,193.65027,163.15796,-0.206,-1.0341,0.3178,-0.067,0.706,-0.251,10.649,8.563,9.749,38
0.2654,-0.0887,0.6355,-0.7195,9.302383,-88.559784,200.21556,148.3164,-0.3144,-1.1425,0.0253,-0.263,-1.065,0.955,-31.187,-5.837,28.499,33
0.1692,0.0355,0.7071,-0.6856,28.696922,-82.377106,212.20947,150.10873,-0.3383,-1.4609,0.0307,0.421,-0.126,1.381,4.81,-29.376,26.176,11
0.2332,-0.3018,0.5793,-0.7202,6.5685124,-102.68638,163.66211,182.02206,0.1601,-0.8925,0.1938,0.015,1.208,-0.494,15.449,-9.437,26.099,25
0.68,-0.6612,0.1749,-0.2639,2.7413762,-89.84648,168.07697,165.2503,-0.3315,-0.9741,-0.0527,-0.014,-1.028,0.263,22.499,-0.887,28.499,17
0.2168,-0.1618,-0.613,0.7422,4.5929403,-97.832085,177.54501,196.61325,-0.2666,-0.9199,0.2871,-0.229,0.121,-0.355,-4.307,-16.749,-26.307,18
0.6351,-0.5341,0.3166,-0.4593,8.948632,-86.15363,171.7619,152.63351,0.0517,-1.0234,0.2929,-0.099,0.156,-0.053,19.199,-17.237,24.749,21
0.5902,-0.6325,0.282,-0.4147,25.817509,-97.09886,159.12198,162.35954,0.0424,-1.0805,-0.0605,-0.201,-0.605,-0.007,-24.339,4.667,5.914,20
0.0876,-0.0885,-0.6142,0.7791,6.205125,-103.2364,182.82314,184.13406,-0.0053,-1.0112,0.2231,0.435,-0.677,1.018,10.349,23.849,-25.487,7
0.6237,-0.5816,0.3541,-0.3836,37.214283,-88.09163,179.5192,172.59052,-0.0756,-1.5068,-0.0576,-0.059,-0.513,0.825,-24.6,20.549,-7.787,3
0.2497,-0.1635,0.6434,-0.7048,16.391773,-91.496956,189.2893,163.09247,0.0571,-0.975,-0.0683,0.295,-0.59,0.927,-26.687,-31.937,21.449,38
0.425,-0.3519,0.6236,-0.5535,6.4873457,-81.939156,196.41785,176.82312,-0.2983,-0.8237,-0.0351,0.096,-0.209,-0.438,32.012,-12.397,32.605,34
0.6763,-0.5114,0.421,-0.322,12.470172,-74.36715,204.15497,179.55415,-0.2924,-0.9833,0.1352,-0.055,-0.153,0.323,-7.59,-9.523,-6.503,44
0.7762,-0.6098,0.0706,-0.1433,25.205805,-76.67848,174.0122,167.19276,-0.2202,-0.913,0.1826,0.065,1.241,-1.526,-30.887,-3.737,-3.6,37
0.6111,-0.5073,0.3557,-0.4924,17.972696,-86.66274,173.97249,152.90729,0.2944,-0.8374,0.0913,0.198,0.959,0.311,20.699,-5.087,20.849,30
0.7451,-0.5924,0.293,-0.089,0.6980306,-71.45216,212.7743,198.99806,-0.3911,-0.9184,0.1176,0.079,0.379,-0.072,13.949,-10.187,14.849,3
0.6117,-0.3645,0.4479,-0.5405,6.646352,-75.68181,193.17839,147.53162,0.0131,-1.2207,0.2753,-0.036,0.937,0.022,-16.65,22.799,5.999,47
0.6892,-0.3698,0.5986,-0.1723,14.527211,-46.18612,249.30461,194.03989,-0.664,-0.7836,0.0156,0.401,0.411,-0.298,24.149,6.763,4.799,48
0.5267,-0.4869,0.4398,-0.5402,27.638237,-92.12143,173.68913,162.99579,0.0302,-1.2773,0.125,-0.74,-3.043,1.147,-20.4,20.399,-13.187,31
0.6792,-0.4728,0.5209,-0.2088,2.5471377,-60.30335,233.60474,196.2296,-0.5385,-0.7338,-0.04,-0.307,-0.041,0.111,31.649,-24.137,0.0,48
0.2894,-0.1755,0.6443,-0.6856,13.060079,-88.43959,193.6206,160.58577,-0.2387,-0.999,0.1215,-0.005,0.065,-0.038,12.149,10.063,6.749,38
0.7229,-0.6553,0.1566,0.1526,14.404439,-74.91806,222.66898,222.532,-0.3857,-1.0668,0.225,0.142,0.376,-0.443,7.639,10.222,25.521,26
0.0037,0.2967,0.6631,-0.6871,22.18554,-86.5474,227.21056,131.23883,-0.1298,-1.0058,-0.0844,-0.246,-0.454,1.249,9.899,-26.237,27.149,40
0.6915,-0.5254,0.3379,-0.3624,12.736147,-78.28458,188.11826,165.93604,-0.2265,-0.8823,0.2875,0.028,-0.164,0.042,-4.65,7.363,-32.237,8
0.4717,-0.3355,-0.5101,0.6361,14.171731,-88.02999,175.0325,209.90472,-0.0883,-0.8188,0.3623,-0.256,0.552,-0.63,-30.587,-5.687,-31.487,46
0.7288,-0.482,0.3703,-0.315,13.314473,-69.8429,201.21286,171.25682,-0.0048,-0.6567,0.0688,0.275,-1.714,0.858,-11.434,-10.826,10.775,44
0.1245,0.128,0.7272,-0.6626,26.293528,-78.33342,222.19061,144.24486,-0.3906,-0.9931,0.0708,0.182,-0.166,-0.122,15.616,-9.149,-10.764,29
0.012,0.1359,-0.7089,0.6918,3.1990361,-87.1796,155.82486,203.5181,0.393,-1.2695,-0.206,-0.725,-1.485,-0.28,19.199,-14.987,-31.337,10
0.5189,-0.4794,0.4429,-0.5518,29.474277,-92.60036,173.07549,161.93088,0.0541,-1.3364,0.0747,-0.768,-3.015,1.134,-20.4,20.399,-13.187,31
0.6624,-0.5551,0.3507,-0.3605,34.22642,-82.49475,186.47891,171.01828,0.02,-0.7631,0.1264,-0.279,-0.438,-1.042,-2.1,-18.287,-32.237,3
0.7152,-0.5868,0.3141,-0.2126,14.381354,-77.04915,200.34471,186.05331,-0.0761,-0.9785,-0.0043,-0.129,-0.238,0.396,-27.15,-4.037,-2.837,3
0.4921,-0.6023,-0.289,0.558,21.85811,-106.64501,218.60448,214.30727,-0.267,-1.0502,0.2387,-0.206,0.286,-1.949,-17.828,-22.636,0.385,23
0.2886,-0.1683,0.648,-0.6843,13.710218,-87.83989,194.84299,160.0654,-0.0898,-0.8427,0.0317,-0.069,0.039,0.381,4.049,-17.537,22.949,38
0.6816,-0.6074,-0.274,0.302,40.158752,-85.10723,179.31474,188.35477,-0.0654,-1.4511,-0.0727,-0.161,-2.316,1.106,-2.978,8.7,15.535,23
0.5181,-0.4416,0.4601,-0.5699,19.960733,-90.24947,177.43318,158.28549,-0.2641,-1.1699,0.1445,-0.321,0.124,-0.046,29.549,-6.587,24.749,30
0.5294,-0.3914,0.563,-0.4994,10.287185,-78.39495,201.92299,171.56831,0.1811,-0.6416,0.0351,-0.095,-2.284,0.812,32.012,-17.347,-16.581,34
0.4274,-0.3741,0.3981,-0.7202,9.7882395,-99.76029,163.88635,130.05481,0.1093,-0.6489,0.228,-0.099,0.709,0.431,-0.9,-28.787,20.713,43
0.5311,-0.5224,0.4549,-0.4878,24.21411,-91.1445,177.08539,174.98116,-0.1152,-0.7954,0.1059,0.725,-0.362,-1.462,-11.4,2.414,-12.137,31
0.7364,-0.4676,0.2596,-0.4141,46.641308,-70.722885,179.60446,146.48927,0.3037,-1.0039,0.3461,-0.523,-0.46,-0.576,13.199,-14.087,-23.537,39
0.4951,-0.3359,0.5164,-0.6125,8.237237,-84.856125,189.20445,151.53972,-0.0664,-1.0644,0.1879,-0.035,-0.08,0.27,32.236,-7.037,5.249,42
0.4713,-0.5291,-0.3757,0.5972,11.276827,-103.633965,206.99257,205.64307,-0.2519,-1.3559,0.0693,0.064,0.554,-1.534,11.721,22.5,-20.014,23
0.6057,-0.4967,0.3678,-0.501,16.298967,-86.41453,175.16785,152.95381,0.2275,-0.9902,0.1708,0.058,1.482,0.194,20.699,-5.087,20.849,30
0.2023,-0.0416,0.6372,-0.7424,20.554407,-92.14884,198.80057,149.06429,-0.1962,-1.0219,0.2446,0.008,0.116,-0.345,-12.879,2.794,-27.313,45
0.4066,-0.3559,-0.5344,0.6498,6.6075625,-94.227264,182.72536,198.64377,-0.1132,-1.0415,0.3359,-0.219,-0.322,-0.079,-1.729,-23.113,-25.049,22
0.7062,-0.5099,0.3316,-0.3621,7.798988,-75.979225,188.99495,163.79915,-0.0498,-0.9633,0.1669,0.047,0.182,-0.114,11.699,31.199,-11.837,21
0.5923,-0.4064,0.4684,-0.5142,11.706228,-79.25483,192.69962,157.34935,-0.1865,-0.8457,0.1977,-0.034,0.825,-0.528,-10.65,-23.537,-12.887,30
0.4305,-0.3496,-0.4394,0.7065,14.446576,-97.07795,189.65883,223.38676,0.04,-1.0893,0.3662,-0.363,0.324,-0.702,-28.729,18.723,11.25,22
0.5133,-0.3036,-0.4994,0.6284,7.00821,-81.96525,168.62648,216.86604,0.1059,-0.9545,0.3266,-0.055,-0.022,-0.103,-18.75,-14.087,-1.337,36
0.5638,-0.673,0.277,-0.3903,24.419924,-101.82713,154.47615,170.25735,-0.0493,-0.5654,0.0278,0.259,1.329,-0.454,-19.839,7.517,13.114,20
0.6718,-0.3494,0.6048,-0.2464,17.810999,-50.245052,244.04211,186.41437,-0.5219,-0.9277,-0.0415,-0.425,-0.798,0.508,-2.4,5.999,31.949,48
0.4261,-0.3611,0.5139,-0.651,11.52598,-94.05493,176.95245,156.71559,-0.1372,-1.0532,0.2661,0.099,0.846,0.151,-7.05,25.799,5.549,42
0.6187,-0.275,0.4658,-0.5697,15.849388,-68.43949,201.06636,138.97694,-0.1508,-1.4223,0.3618,-0.445,0.534,-0.202,6.749,26.999,-2.55,47
0.7885,-0.566,-0.1204,0.2079,12.183988,-72.449394,183.91656,197.12291,0.0932,-0.7558,0.2031,0.952,-0.322,1.009,-1.2,-24.587,25.199,6
0.5976,-0.675,0.2642,-0.3424,17.524069,-98.2058,162.44748,172.95421,-0.2143,-1.3344,0.2636,-0.971,0.128,-0.699,-14.289,9.167,11.914,20
0.6897,-0.558,0.316,-0.336,9.70741,-80.67794,185.92445,169.00142,-0.1718,-0.7338,0.1464,-0.199,-0.53,-0.18,0.599,21.299,-15.437,8
0.6918,-0.6356,0.2615,-0.2212,12.97639,-84.566,188.7397,182.76138,-0.0395,-0.9331,0.1147,0.216,-1.153,2.344,-9.3,14.999,-9.137,17
0.3127,-0.0858,0.623,-0.7117,6.6093917,-84.85135,204.95996,141.62454,-0.2226,-0.9809,0.2324,0.059,-0.29,0.216,23.849,19.213,24.299,33
0.669,-0.5489,0.3219,-0.3839,5.8478036,-82.77119,180.89146,163.45505,-0.0844,-1.1342,0.1777,-0.033,1.037,-0.561,-2.7,18.313,-25.487,27
0.224,-0.264,-0.6244,0.7,11.313751,-96.85637,189.51036,177.90616,0.3471,-0.9716,0.4291,-0.517,-1.43,-1.045,31.34,-30.537,20.189,12
0.7958,-0.5634,0.1909,0.1123,22.842255,-62.895546,216.85153,212.76945,-0.1489,-1.0522,0.2607,0.214,0.211,1.142,-3.737,-8.087,-9.15,37
0.0064,0.2104,0.6499,-0.7302,14.282276,-93.46132,212.9689,142.98158,-0.0229,-0.9414,-0.1049,-0.107,0.89,1.652,-19.637,-22.187,11.399,40
0.486,-0.1238,0.6763,-0.5394,8.442139,-61.36906,232.8393,151.147,-0.4404,-0.8764,0.5703,0.319,-1.846,-1.15,31.06,17.28,8.236,13
0.587,-0.4555,0.4653,-0.4809,15.683716,-81.95259,190.73073,165.70773,0.0034,-1.0908,0.2304,-0.254,0.199,0.215,-11.1,-10.337,-24.437,32
0.3088,-0.1864,-0.6238,0.6933,46.031628,-89.50888,167.43835,202.82855,-0.1264,-0.9409,0.0551,0.725,0.819,-0.841,26.099,32.249,20.549,40
0.1037,0.0101,-0.677,0.7284,13.41586,-91.87184,163.69202,199.91963,-0.061,-0.9218,-0.0351,0.679,-0.885,-0.565,13.049,27.599,-17.087,10
0.4307,-0.3942,0.512,-0.63,10.576633,-94.76475,174.5289,162.3472,0.0625,-1.1577,0.1801,-0.064,-1.535,-0.009,-26.4,-32.687,11.399,42
0.4009,-0.3894,0.3999,-0.7263,11.472004,-104.12945,159.81477,134.19739,0.5068,-0.9438,0.5297,0.15,-0.526,0.042,22.499,28.349,11.263,43
0.2788,-0.208,-0.5883,0.7299,13.321058,-96.9585,177.7105,201.67317,-0.1489,-1.3686,0.27,-1.281,-0.31,0.34,-8.75,-19.466,-13.375,18
0.7223,-0.6718,0.0817,0.1421,7.326252,-81.32539,211.82104,213.20087,-0.247,-1.0849,0.0322,-0.319,-1.279,0.685,26.089,-24.578,-27.715,26
0.5218,-0.3885,-0.4743,0.593,23.038986,-86.69361,176.85846,208.2574,-0.2426,-0.8525,0.2104,0.077,0.037,-0.473,-7.579,10.623,2.85,22
0.5958,-0.4582,0.4686,-0.4639,13.634527,-80.63623,193.33101,167.74559,-0.0209,-0.9082,0.122,0.034,-0.901,0.687,-2.7,25.349,-13.487,32
0.737,-0.4411,0.2609,-0.4405,49.881504,-68.50715,179.6858,142.151,-0.0712,-0.9902,0.4663,-0.242,0.281,-0.548,-4.35,-4.937,-0.887,39
0.5853,-0.4546,0.4717,-0.4775,15.761323,-81.638306,191.81004,166.86719,-0.103,-1.186,0.1069,-0.166,0.015,0.247,-11.1,-10.337,-24.437,32
0.6698,-0.6562,0.2015,-0.2828,6.2177024,-90.45656,169.0624,166.66393,-0.0063,-0.5986,0.0053,0.041,1.012,-1.66,-21.15,-23.087,-4.337,17
0.0024,-0.0518,0.5632,-0.8246,9.829111,-111.1518,173.03798,189.80038,0.0346,-0.8364,0.2094,0.167,-0.691,0.414,-14.987,-5.087,-31.637,49
0.5677,-0.4464,0.3729,-0.5824,12.042122,-87.723656,171.64954,140.82404,0.0751,-0.77,0.1972,-0.18,-0.251,0.668,-10.139,-29.501,-26.622,4
0.6745,-0.57,0.2865,-0.3713,1.8688444,-84.11301,176.44502,161.56744,0.0991,-0.8994,0.3271,0.161,0.023,-0.166,18.749,-7.937,19.499,27
0.3893,-0.347,-0.4716,0.711,7.772499,-100.57488,190.97476,213.66783,0.0219,-0.7353,0.4072,-0.677,-0.641,-0.692,-17.929,-4.513,-19.349,22
0.7927,-0.5836,0.0883,-0.1522,15.9489,-73.29424,176.68939,167.59879,-0.2148,-0.9179,0.2739,-0.139,0.526,-0.751,5.549,-28.487,-29.387,50
0.5236,-0.3974,-0.4824,0.5788,23.746346,-86.39545,175.75633,204.78104,-0.0766,-1.1821,0.3745,-0.421,-0.376,-0.019,-15.829,7.773,8.85,22
0.422,-0.3798,0.5554,-0.6075,13.420057,-91.04699,180.7645,169.33278,-0.0351,-0.9033,0.2021,-0.344,0.264,-0.5,26.386,-8.537,-4.787,1
0.6326,-0.4581,0.4457,-0.4372,9.32238,-77.56254,195.72682,166.21301,0.0722,-0.9667,0.1391,0.193,-0.35,0.225,-3.9,-3.287,-29.237,32
0.7994,-0.5831,0.1004,-0.1031,10.371541,-72.52349,183.55162,175.78719,-0.104,-1.0122,0.3051,0.139,0.331,-0.713,31.799,1.513,-7.2,50
0.4699,-0.2949,-0.4833,0.6771,4.9584894,-87.4349,175.37581,222.26837,0.0146,-1.3061,0.4179,0.435,-0.101,-0.284,32.249,-14.087,31.949,36
0.2024,-0.169,0.6297,-0.7306,23.319593,-96.719795,180.79349,169.17421,-0.1469,-0.8437,0.1582,-0.069,1.503,-0.349,-9.587,-17.987,9.749,38
0.0665,-0.0953,-0.6227,0.7737,14.741695,-102.4288,186.1365,177.69424,-0.1015,-1.0053,0.2211,-0.002,0.174,-0.149,-6.97,14.704,-11.188,18
0.6863,-0.4179,0.4509,-0.3884,10.686639,-68.46953,206.62413,166.78214,-0.0839,-1.2705,0.0747,0.191,0.023,0.197,25.499,-20.687,25.949,30
0.6912,-0.614,0.2088,-0.3186,2.2064862,-85.67911,169.87851,159.98206,0.6035,-1.0156,0.104,-0.249,-0.342,-0.405,-7.05,-23.087,-17.087,9
0.3302,-0.1106,0.6446,-0.6805,1.2138861,-82.0111,207.04385,147.39563,-0.2861,-0.9619,0.1528,-0.006,0.003,-0.024,14.598,-30.745,-25.318,35
0.238,-0.2478,-0.635,0.6918,37.490826,-94.58297,184.34367,181.81773,-0.08,-1.226,0.1884,-0.477,-2.595,1.596,-6.6,-23.987,5.699,40
0.5887,-0.4118,0.4808,-0.5025,10.507014,-79.116356,194.48222,160.7785,-0.08,-0.9091,0.1445,0.262,0.998,-0.617,19.199,-18.437,30.299,30
0.16,-0.0807,0.6237,-0.7608,21.878963,-98.40379,187.26964,160.45871,-0.3374,-1.5517,0.2026,-0.561,0.436,-0.12,11.542,-26.532,-32.569,45
0.6112,-0.2345,0.4994,-0.5673,20.245274,-65.44831,207.81686,139.53235,-0.3334,-1.0449,0.3085,-0.321,-0.296,-0.578,-26.1,-23.537,21.899,47
0.1586,0.2084,0.7541,-0.6021,25.238026,-66.23793,244.59953,133.9043,-0.1552,-0.8466,-0.2075,-1.359,1.152,1.596,21.299,28.649,-6.737,29
0.5241,-0.3722,0.5898,-0.4886,8.571986,-75.54483,207.84225,173.27966,0.0693,-0.9819,-0.0478,0.175,-3.496,0.365,5.462,9.489,-6.231,34
0.3294,-0.117,0.6436,-0.6807,1.9854369,-82.49759,206.06398,148.1961,-0.2597,-0.9707,0.1455,-0.003,-0.023,-0.02,13.698,-31.045,-25.168,35
0.6752,-0.424,0.5582,-0.2292,7.5734253,-56.442215,237.63553,192.18535,-0.5332,-0.9409,-0.1171,-0.65,-1.162,0.223,19.799,25.499,11.249,48
0.053,-0.0565,-0.6383,0.7658,18.140133,-100.330635,181.83517,181.26349,0.1757,-1.0346,0.0146,0.293,0.451,0.089,-17.17,9.754,2.611,18
0.6224,-0.5286,0.3367,-0.4687,10.42673,-86.943054,172.80005,154.4061,0.1113,-1.166,0.1635,-0.19,-0.999,0.691,21.149,-29.087,-20.087,21
0.3433,-0.0135,0.5981,-0.7239,11.792389,-78.782906,213.88744,126.35997,-0.4702,-0.727,0.3037,-0.459,-0.064,-1.988,-17.572,9.32,3.585,35
0.5418,-0.3118,0.4867,-0.61,13.379383,-79.53585,192.60135,142.75392,0.0073,-1.0776,0.2485,-0.791,0.169,-1.055,-25.8,16.949,30.449,47
0.6791,-0.5679,0.2932,-0.3608,2.9963627,-83.28058,178.87878,163.66843,0.1284,-1.1035,0.0546,0.125,-0.891,0.549,-0.45,-20.687,-26.987,27
0.7992,-0.5752,0.1518,0.0853,16.217209,-66.625435,209.55081,206.44461,-0.1171,-0.8442,0.3422,0.154,0.717,-1.567,-17.687,-24.587,-10.65,37
0.1772,-0.2796,-0.576,0.7473,9.700688,-105.60451,200.54031,170.98575,-0.2172,-0.7954,0.1196,0.114,-0.306,0.715,-16.937,-11.237,-11.4,41
0.7319,-0.6638,0.1239,0.091,14.779769,-79.482025,211.04599,210.2327,-0.5092,-1.1508,0.1367,-0.246,0.115,-0.039,-1.36,-32.678,-30.715,26
0.4443,-0.5388,0.4459,-0.5596,5.711968,-101.943016,157.10226,177.57701,0.1796,-0.6508,0.0102,0.124,0.156,1.157,-11.4,-7.187,-20.237,2
0.3966,-0.3622,-0.5993,0.5935,17.044125,-88.03298,174.8945,184.06221,-0.1069,-0.916,0.0551,0.329,0.164,-0.976,-0.893,0.102,-18.84,12
0.2967,-0.2788,0.5757,-0.709,24.303041,-98.57577,174.79323,166.4438,0.059,-1.3559,0.437,-0.438,-0.283,0.055,-2.55,26.999,-9.737,24
0.6216,-0.433,0.478,-0.4442,2.6246338,-75.77694,200.35472,167.16837,-0.2851,-0.9355,0.1381,0.127,-0.586,-0.069,14.699,22.213,-32.537,30
0.5099,-0.3057,-0.4965,0.6324,6.6556373,-82.63605,169.63745,217.24493,0.02,-0.9599,0.353,-0.041,0.17,-0.162,-18.75,-14.087,-1.337,36
0.5127,-0.4117,0.5136,-0.551,18.742825,-85.8288,187.36868,164.6335,-0.1616,-1.4008,0.1274,-0.399,-0.18,0.451,10.949,-14.837,-29.237,30
0.2298,-0.0917,0.642,-0.7255,12.8858795,-91.13237,195.9239,153.88275,-0.082,-0.9482,0.0898,-0.282,-1.986,0.616,-7.957,22.204,-21.319,45
0.6865,-0.7049,0.048,0.1717,0.71807516,-87.45417,214.18504,215.52438,-0.3657,-0.9619,-0.0546,0.045,-0.026,-0.154,27.181,-14.69,24.443,26
0.1353,-0.0025,-0.5756,0.8064,10.828965,-103.55475,167.053,214.23273,0.2514,-0.8256,0.3847,0.201,0.867,-1.78,-10.037,1.664,-26.387,49
0.1095,-0.2755,-0.5714,0.7652,9.779126,-106.91379,207.86734,155.45529,-0.2607,-1.1469,0.1528,-0.004,0.406,-0.359,28.349,-16.937,3.449,41
0.3029,-0.2118,-0.622,0.6902,46.11107,-91.009766,171.4999,198.35344,-0.2333,-0.8833,-0.0478,0.925,0.983,-0.918,27.599,-11.837,7.949,40
0.5128,-0.3574,-0.506,0.5942,20.587915,-84.41455,171.25395,206.84558,-0.0932,-1.0205,0.4438,-0.171,1.318,-0.219,-29.687,-3.887,-30.887,46
0.6207,-0.5203,0.2936,-0.5076,38.94294,-86.855194,165.48663,142.00711,0.0878,-0.9765,0.4848,-0.285,0.135,-0.14,32.699,-13.637,-29.987,39
0.3045,-0.1937,0.6474,-0.6712,10.932054,-87.23744,194.08762,162.45665,-0.0375,-1.1386,0.1762,-0.111,0.695,-0.062,10.649,8.563,9.749,38
0.4787,-0.383,-0.4803,0.6271,18.203735,-91.22286,181.88873,208.3719,0.0224,-0.6123,0.3168,-0.145,1.746,-0.887,-7.579,10.623,2.85,22
0.1685,-0.0085,0.6721,-0.7209,29.629995,-89.07379,202.11752,152.88844,-0.4331,-0.7924,0.0615,-0.005,1.796,-0.806,11.26,-31.326,23.026,11
0.0605,-0.1543,0.5584,-0.8127,30.395452,-111.114296,164.29156,193.37616,-0.1489,-1.3666,0.3876,-0.106,0.37,-0.161,-3.6,-20.087,-32.537,25
0.4418,-0.0315,0.7645,-0.4682,18.907509,-49.816967,255.8701,153.61333,-0.4619,-1.0727,-0.268,1.424,0.782,-0.444,-1.339,-2.219,14.386,13
0.7363,-0.6077,-0.0951,0.2818,4.9216795,-79.40857,198.50037,210.38922,-0.5034,-0.9755,0.1201,0.283,0.075,-0.162,-20.216,1.984,-12.401,15
0.6796,-0.4672,0.5234,-0.2137,2.2198055,-60.08007,233.5088,195.37207,-0.4589,-0.893,-0.1333,-0.462,-0.513,0.13,31.649,-24.137,0.0,48
0.7287,-0.3875,0.4472,-0.3443,40.328682,-61.385284,213.00876,167.88045,-0.0166,-1.0751,0.2421,0.215,-1.345,0.488,14.399,-16.937,30.599,28
0.4489,-0.3958,0.539,-0.5926,11.635942,-90.25895,181.53543,167.77722,0.0141,-1.227,0.1127,0.079,0.512,0.038,14.836,-16.337,5.563,1
0.6311,-0.6191,0.2274,-0.408,13.921024,-92.248085,158.13608,150.9217,0.2416,-1.0361,-0.0263,0.216,-0.718,0.694,-0.9,-8.537,-23.987,9
0.6728,-0.4451,0.5495,-0.2167,5.920578,-57.61732,237.35007,194.91646,-0.5952,-0.9682,0.0131,0.355,0.47,0.179,29.699,-30.737,2.549,48
0.5159,-0.5955,-0.2916,0.5422,21.73393,-103.49674,214.22318,213.61336,-0.2368,-0.9692,0.2856,-0.343,1.469,-1.652,-22.478,3.75,13.285,23
0.5334,-0.3197,0.4879,-0.6124,13.183857,-80.976654,191.16423,143.82518,-0.0898,-1.2207,0.1914,-0.599,0.012,-1.04,-25.8,16.949,30.449,47
0.3559,-0.2957,0.6457,-0.6072,20.744497,-84.84683,191.58604,174.69807,-0.1318,-0.8647,-0.0375,0.571,1.3,-0.925,-15.087,10.239,-1.881,34
0.1484,0.2091,0.6854,-0.6815,31.169285,-76.899864,233.31511,127.139786,-0.4863,-0.8642,-0.0585,0.318,-0.786,-0.267,21.316,-9.749,-10.914,29
0.6846,-0.5109,0.4321,-0.2886,17.691893,-71.771095,210.09116,184.05199,0.0629,-1.1953,-0.018,-0.186,0.618,-0.958,-0.15,3.013,-16.787,31
0.1923,-0.3877,-0.5729,0.6959,14.483397,-103.10591,214.05382,152.81717,-0.1645,-0.9169,-0.0317,-0.022,-0.264,0.414,-32.546,-22.437,20.789,12
0.6039,-0.563,0.3442,-0.447,13.242998,-90.550095,171.12686,162.08508,-0.0073,-0.4194,-0.0986,0.228,2.774,-2.446,19.199,-26.387,-31.637,31
0.3306,-0.1084,0.6448,-0.6805,0.9624878,-81.84501,207.37624,147.0911,-0.2841,-0.9624,0.1538,-0.004,-0.006,-0.024,15.198,-31.045,-23.668,35
0.6964,-0.5809,0.2944,-0.3011,6.940281,-81.4422,185.98877,172.26021,0.228,-1.0888,0.1875,-0.204,-0.194,0.308,6.149,-28.487,-30.437,8
0.4499,-0.3975,0.5381,-0.5915,11.365385,-90.27681,181.44609,167.88164,0.0488,-1.2509,0.0947,-0.102,0.207,0.091,14.836,-16.337,5.563,1
0.4641,-0.4114,0.53,-0.5781,10.5704365,-89.82711,181.69765,168.43587,0.1694,-1.0375,-0.0498,0.001,-0.913,1.291,27.136,15.749,1.813,1
0.255,-0.239,0.5806,-0.7352,4.559588,-100.58887,174.76936,166.1858,0.1411,-0.747,0.0922,0.085,-1.352,0.502,9.449,-23.987,32.249,25
0.2773,-0.2326,0.5824,-0.7278,5.181618,-98.42795,178.52907,161.87877,0.0859,-1.3686,0.0634,0.021,0.255,0.261,7.049,-26.387,-30.587,25
0.737,-0.6748,0.0335,-0.0143,1.0463792,-84.877815,183.17093,182.54002,0.0498,-1.0419,0.06,0.434,0.085,0.597,2.699,22.649,-11.987,14
0.3846,-0.3242,-0.4853,0.715,8.22252,-99.24936,187.83821,214.11678,-0.0136,-0.8403,0.2812,0.17,0.237,0.084,-17.929,-4.513,-19.349,22
0.5038,-0.3906,0.6149,-0.464,6.5610986,-74.67818,210.64865,181.16357,-0.1865,-0.9858,-0.1088,-0.239,0.129,-0.083,-1.887,-1.447,-8.331,34
0.7215,-0.5942,-0.2488,0.2534,48.597572,-80.2456,174.33379,186.87575,-0.0644,-1.5537,0.0541,-0.58,0.031,0.436,29.258,0.75,11.185,23
0.0546,-0.0581,-0.6411,0.7632,18.655815,-99.892044,181.82755,181.22418,0.3227,-0.9355,-0.0053,0.335,-1.253,0.094,-17.17,9.754,2.611,18
0.7654,-0.5552,-0.0945,0.3111,5.5325294,-72.19998,196.73293,214.67026,-0.0634,-1.0678,0.205,0.144,-0.732,0.723,28.37,22.534,3.199,15
0.0085,0.2982,0.6626,-0.6869,22.150799,-86.16712,228.07304,130.28645,-0.1015,-1.0297,-0.0791,-0.233,-0.443,1.052,9.899,-26.237,27.149,40
0.7788,-0.6045,0.0808,-0.1465,14.719608,-76.10876,175.32541,167.84924,-0.1215,-1.2397,0.2006,-0.377,-0.341,0.559,-3.15,-30.137,-28.037,50
0.7892,-0.5811,0.0836,-0.1796,18.34064,-73.29039,173.2926,163.17226,-0.1059,-0.8374,0.3554,-0.383,-0.417,0.419,5.399,-15.737,15.299,50
0.7859,-0.5981,0.0652,-0.142,14.295834,-74.86988,173.95274,166.68245,-0.1157,-1.3085,0.2714,-0.659,0.116,0.625,23.099,-20.387,21.599,50
0.546,-0.325,-0.4582,0.6214,12.287306,-80.85175,171.93758,221.08157,0.103,-0.8334,0.4736,0.144,-0.322,0.119,-13.05,-30.587,-1.187,36
0.7262,-0.6737,0.0675,0.1183,9.374445,-82.58895,206.74927,207.74857,-0.4223,-0.8066,0.06,0.27,0.341,-0.16,22.381,-16.19,23.243,26
0.2972,-0.0782,0.6301,-0.7129,11.089696,-85.41241,204.86522,142.95692,-0.3652,-1.2709,0.2016,0.4,0.839,-1.078,-25.842,9.896,6.754,45
0.7716,-0.6083,-0.1025,0.1548,19.276344,-77.134026,182.78885,190.76646,-0.2031,-1.2861,0.3305,0.039,-0.306,0.605,-26.066,-3.416,-7.001,15
0.7955,-0.5798,0.0998,0.1449,15.355043,-67.734245,208.06421,210.14957,0.0351,-0.8803,0.1059,0.563,-0.222,1.876,-18.587,-8.687,-14.25,37
0.335,-0.1334,0.6293,-0.6883,0.1869108,-84.184784,202.9581,147.81354,-0.2358,-0.9638,0.1655,0.014,-0.001,-0.01,-24.587,-7.037,12.749,33
0.2186,-0.1591,-0.6178,0.7383,4.102529,-97.03128,176.60164,196.71718,0.2812,-0.8041,0.0449,0.578,-1.202,0.33,0.7,-26.786,-20.876,18
0.7665,-0.608,0.0725,-0.1932,30.902735,-77.15362,168.68604,160.09657,-0.2988,-0.9316,0.1806,0.025,1.601,-1.27,-19.187,-22.487,5.549,37
0.3246,-0.1639,0.6214,-0.6939,11.300003,-87.41482,197.05138,151.81416,-0.0317,-1.1044,0.0214,-0.136,-0.07,0.011,-4.487,-12.437,1.799,38
0.0635,-0.053,0.7161,-0.693,22.6749,-88.05621,182.06863,178.65817,0.0463,-1.4809,0.1376,2.772,-2.111,-0.926,27.749,-31.037,-21.887,10
0.8047,-0.534,-0.0623,0.2516,18.667866,-66.98944,193.51392,209.11948,-0.1132,-0.81,0.1586,0.94,0.31,1.329,-20.1,21.749,-12.137,6
0.2514,-0.1164,0.621,-0.7331,10.867715,-92.65018,193.44287,151.97409,-0.1884,-1.4404,0.1577,-0.352,-0.215,0.191,-26.537,-12.137,20.699,33
0.5192,-0.3406,0.6361,-0.4578,7.7562833,-69.51318,219.98738,176.42603,-0.3056,-1.4057,-0.143,0.335,2.881,-0.823,-29.924,23.139,-25.731,34
0.718,-0.6668,0.1279,0.1529,10.6874695,-78.05425,219.55653,220.28064,-0.2705,-1.1132,0.0283,-0.166,-1.022,0.788,-25.96,16.958,-12.715,26
0.616,-0.6786,0.2191,-0.3345,13.6535845,-97.44343,158.78351,164.7117,0.4599,-0.936,0.0805,-0.23,0.721,0.401,-31.089,6.767,2.914,20
0.2104,-0.1803,0.6558,-0.7021,20.880678,-92.72003,182.42957,172.8871,0.0903,-1.3793,0.2294,0.234,-1.375,-0.05,-9.737,4.813,5.099,38
0.3901,-0.2098,-0.5939,0.6714,56.03199,-85.134575,162.86835,210.42873,-0.0678,-1.2773,0.1738,-0.387,0.82,0.317,25.049,-13.337,3.449,40
0.774,-0.6057,0.1836,-0.0113,20.572998,-72.60068,205.44106,198.39497,-0.1347,-0.9121,0.2167,0.064,0.465,-1.44,19.499,2.863,13.199,37
0.3097,-0.0643,0.6197,-0.7182,8.3004055,-84.32291,206.80128,138.34431,-0.3798,-0.7973,0.3359,-0.029,-0.57,-0.575,-19.187,-22.487,31.199,33
0.3298,-0.1134,0.6443,-0.6805,1.560143,-82.21592,206.62698,147.7693,-0.2812,-0.9658,0.1484,-0.001,-0.021,-0.029,13.848,-30.445,-25.018,35
0.8076,-0.553,-0.0866,0.185,9.806773,-69.450714,185.39917,197.49593,0.1293,-1.0097,0.517,-0.635,0.476,-1.001,-1.8,30.449,22.499,6
0.0453,0.0445,-0.7351,0.6749,21.78342,-84.2763,164.23836,193.3093,0.185,-1.3408,-0.0375,0.277,-1.035,0.378,0.149,21.149,-10.187,10
0.3991,-0.3292,-0.4747,0.7119,9.327329,-98.37143,187.71364,216.77362,0.2929,-0.9482,0.5117,-0.483,0.508,-1.053,-1.879,-31.363,-22.799,22
0.7282,-0.6721,0.0695,0.1145,9.86105,-82.325905,206.42307,207.32826,-0.4492,-0.8471,0.0859,0.171,0.196,-0.197,22.381,-16.19,23.243,26
0.2299,-0.1339,-0.5667,0.7797,8.107092,-101.22966,175.51382,210.90088,0.2988,-1.3627,0.288,-0.174,0.451,-0.457,4.149,-24.866,-23.875,18
0.3217,-0.2234,-0.5707,0.7216,19.08774,-95.18742,175.89157,207.40485,-0.1005,-0.8715,0.2939,-0.09,0.034,-0.027,10.149,-29.816,-15.475,18
0.3921,-0.2819,-0.5589,0.674,31.28292,-91.0752,174.51149,205.79245,-0.061,-1.1445,0.3354,-0.163,-0.267,0.131,-31.337,-16.637,-1.35,41
0.318,-0.2767,-0.5705,0.7048,22.959963,-97.24631,182.60606,197.66,-0.1821,-1.1464,0.2485,-0.04,0.842,-0.212,-20.537,-1.937,-14.25,41
0.5144,-0.4106,-0.5869,0.4713,11.762839,-77.38497,154.89233,180.27386,0.1923,-1.207,-0.0756,-0.198,0.36,0.306,4.801,26.067,-32.317,16
0.2105,-0.0653,-0.5907,0.7761,19.512346,-97.7107,167.00218,215.21437,-0.1328,-1.1513,0.3886,-0.368,-0.745,0.207,12.449,-4.487,-2.387,49
0.7077,-0.5872,-0.2725,0.2827,44.67246,-81.02635,174.70651,187.9683,-0.2324,-0.9672,-0.0053,0.247,0.89,-0.373,3.771,15.15,10.135,23
0.2225,-0.1822,-0.5977,0.7483,7.623985,-99.79385,180.63023,196.11894,0.0864,-0.9506,0.2255,1.629,-0.114,0.247,-12.675,-31.695,-5.813,18
0.7601,-0.6451,0.0697,0.0313,8.53533,-79.52825,194.41165,193.46085,-0.0815,-0.8525,0.0185,0.28,0.504,0.512,-4.2,25.649,-9.137,14
0.7977,-0.5788,0.0557,-0.1596,16.87262,-72.10665,171.71277,163.08578,-0.1079,-0.8002,0.3374,-0.12,-0.064,-0.348,28.949,-16.337,16.649,50
0.5579,-0.4471,0.4703,-0.5172,14.10142,-84.9474,186.15979,163.27338,-0.0107,-1.0332,0.1162,0.044,-1.544,2.293,10.049,-22.187,-28.787,28
0.8017,-0.5909,0.0873,-0.0174,0.07064,-72.22422,190.60973,186.62413,-0.125,-0.958,0.2905,0.005,0.035,0.02,30.899,0.164,-8.85,50
0.1422,0.015,-0.6118,0.7779,9.977103,-97.93794,162.06778,213.78139,0.3916,-1.1098,0.1166,0.753,-2.472,1.381,-11.537,-26.987,-0.287,49
0.3667,-0.1136,0.6126,-0.6908,4.5705233,-81.2515,206.87875,140.3593,-0.3447,-0.7636,0.2866,0.253,0.832,-0.772,-0.6,-15.587,-10.337,33
0.803,-0.5877,0.0441,-0.0871,10.092512,-72.55141,177.22946,172.21191,0.0405,-0.9584,0.2133,0.031,0.914,-1.195,-32.237,-9.887,-3.45,50
0.4181,-0.0938,0.7524,-0.5001,12.167447,-57.73012,244.41745,158.82114,-0.5766,-0.979,-0.1621,2.971,-0.377,-0.886,28.66,20.13,-3.163,13
0.2298,-0.1651,0.6461,-0.7087,19.102701,-92.62757,186.48943,166.37265,0.1206,-0.9672,-0.0434,0.165,-0.84,0.701,-26.687,-31.937,21.449,38
0.3772,-0.1164,0.6123,-0.6849,5.2662597,-80.21713,207.78922,140.22899,-0.1,-0.9013,0.4458,0.383,1.053,-0.773,-0.6,-15.587,-10.337,33
0.3186,-0.1703,0.611,-0.7042,0.23231524,-89.3759,194.26208,151.56482,-0.163,-0.979,0.2041,-0.002,0.013,-0.012,9.142,-20.232,24.417,45
0.3981,-0.3524,0.5307,-0.66,7.906307,-95.371254,175.89087,160.47476,0.1762,-0.5678,0.1201,0.49,-0.643,0.425,28.799,-18.437,-31.337,24
0.6407,-0.5976,0.3269,-0.3542,32.846058,-87.785866,179.52425,173.01381,-0.0253,-1.3471,0.0073,-0.076,-0.449,0.944,-4.65,-25.487,-31.487,3
0.2714,-0.2613,-0.5783,0.7235,16.815018,-99.99943,186.15437,192.654,-0.0874,-0.9599,0.1303,-0.013,0.392,-0.908,-23.387,-15.437,-5.85,41
0.6947,-0.5434,0.2827,-0.3769,5.1216125,-80.39546,178.45625,158.22209,0.0844,-0.8999,0.2031,0.291,-0.079,0.546,19.649,-7.787,21.599,21
0.1616,-0.0921,0.6186,-0.7632,20.988419,-99.245964,185.5831,161.55847,-0.2744,-1.3627,0.2397,-0.594,0.036,0.11,-8.592,11.396,-3.445,45
0.0265,0.2449,0.68,-0.6904,42.067505,-85.75472,222.80536,136.48537,-0.1909,-0.8178,-0.1464,-1.818,-1.5,0.578,12.749,-30.137,28.649,29
0.7267,-0.5027,0.3677,-0.2894,27.710001,-70.79967,202.50407,175.60295,-0.208,-1.0244,0.1997,-0.029,1.041,-0.811,-4.95,-23.087,-32.387,3
0.2946,0.0573,0.7819,-0.5463,0.6028258,-58.818382,248.3688,147.16011,-0.5629,-0.8354,-0.2187,0.159,0.007,0.011,-2.687,-0.287,32.549,29
0.1112,0.0779,-0.5948,0.7922,10.816489,-99.71946,157.4034,220.31995,0.3476,-1.0058,0.0712,0.497,-0.648,1.376,-16.637,-15.887,-19.487,49
0.4764,-0.4105,0.3851,-0.6753,1.928425,-96.11956,164.36847,132.88138,0.2226,-0.852,0.288,0.037,-0.915,0.204,-29.237,-6.437,30.749,43
0.6625,-0.5612,0.3438,-0.3574,8.328115,-83.03001,185.49533,171.00166,-0.0375,-1.1259,0.0556,0.387,-0.899,0.966,8.515,25.473,-21.774,44
0.2396,-0.2035,-0.5973,0.7378,9.726754,-99.02514,181.3385,195.19008,0.0898,-0.8955,0.124,1.356,0.366,0.221,30.216,-20.246,21.661,18
0.6167,-0.5403,0.3925,-0.4165,18.139267,-85.61236,183.52066,170.41809,-0.1596,-0.916,0.2309,-0.261,0.046,-0.151,8.515,12.273,-18.174,44
0.6806,-0.5689,0.2872,-0.3612,2.4531198,-83.30865,178.06645,162.8174,0.0214,-1.2094,0.2363,-0.082,0.709,0.032,14.399,-8.837,19.349,27
0.604,-0.673,0.1547,-0.3977,16.72263,-97.30047,143.15254,141.41049,0.9438,-1.9614,-0.2685,-0.053,-4.261,1.679,15.149,-14.237,-18.887,17
0.5318,-0.4177,-0.4826,0.5564,25.417141,-86.205986,175.31396,200.72696,-0.1274,-0.6279,0.2109,0.309,-0.824,-1.004,-28.787,28.199,3.463,46
0.7338,-0.6685,0.105,-0.0582,5.97501,-84.14672,188.05313,185.7271,-0.0473,-0.9799,0.0869,-0.17,-0.856,0.31,6.299,19.063,-24.437,19
0.7253,-0.6637,0.1028,0.1507,9.609088,-78.99379,215.29486,216.61122,-0.2211,-0.663,0.1533,0.141,0.358,-0.505,1.039,29.558,-30.265,26
0.351,-0.155,0.6356,-0.6698,7.080317,-82.80073,203.56436,150.95078,-0.2055,-0.9809,0.1635,-0.149,-0.372,0.107,12.319,-32.437,-24.226,35
0.6901,-0.5615,0.3242,-0.3212,8.074896,-80.30942,188.56277,172.202,-0.2343,-0.9497,0.2875,-0.217,-0.285,-0.106,12.749,-12.437,-31.787,8
0.2489,-0.4639,0.4863,-0.6972,24.561749,-112.630844,139.46158,199.7909,0.1733,-1.1699,0.2021,-0.338,1.394,-1.241,-15.0,-31.937,-22.037,1
0.5394,-0.3959,-0.5852,0.4579,13.739002,-74.46717,149.9504,182.76932,-0.0219,-0.5385,0.0122,0.211,0.04,-0.946,-22.335,1.767,18.519,16
0.5183,-0.3999,0.5382,-0.5307,17.661825,-82.5549,193.82693,167.76526,-0.185,-1.0625,0.1303,0.128,-0.419,0.327,9.449,31.649,-12.887,30
0.6142,-0.6822,0.1232,-0.3768,3.1854165,-95.98507,141.48744,138.83005,0.3203,-0.8369,0.1538,-0.207,0.744,-0.001,-29.654,-27.617,-1.946,5
0.3042,-0.484,0.4815,-0.6642,17.521656,-110.193016,143.69125,190.91673,0.4179,-0.9042,0.1318,-0.083,1.799,-1.439,-11.4,18.599,-11.837,1
0.0767,-0.3276,-0.604,0.7223,61.42866,-98.56138,219.66745,137.95366,-0.6459,-1.0141,-0.246,0.216,0.701,-0.562,-26.537,-23.537,-19.787,29
0.4772,-0.3937,-0.5088,0.5985,16.19352,-89.81122,178.59781,199.88336,-0.0073,-1.352,-0.1152,0.16,-2.828,0.821,-24.529,7.923,15.6,22
0.121,-0.1568,0.6009,-0.7743,26.784924,-104.38529,170.93246,180.1619,-0.0839,-1.0527,0.2163,-0.939,-1.549,0.734,-9.078,17.59,-12.554,35
0.5897,-0.4474,0.4479,-0.5013,16.349155,-82.531136,187.61072,160.29697,-0.1416,-1.1757,0.2875,-0.252,-0.136,-0.183,-25.187,-15.587,-24.587,32
0.3542,-0.3329,-0.6341,0.6012,12.128823,-86.82991,174.24846,180.40254,-0.0659,-0.8891,0.1269,-0.874,1.568,-1.649,-21.896,-26.937,27.989,12
0.605,-0.2495,0.4958,-0.5706,17.854376,-67.38585,205.67317,140.19554,-0.29,-1.3266,0.3217,-0.308,-0.362,-0.823,-25.65,-17.837,17.699,47
0.3301,-0.0456,0.6351,-0.6967,8.047252,-79.47663,213.32239,137.15253,-0.3896,-0.7031,0.1459,0.806,1.748,2.212,7.271,29.59,-11.654,35
0.0759,0.0313,-0.7257,0.683,17.83716,-85.07659,161.60692,195.94301,0.0756,-1.1533,-0.0629,-0.928,1.538,0.448,0.149,21.149,-10.187,10
0.5819,-0.3221,-0.4681,0.5817,17.156275,-75.99541,165.68347,217.20386,0.375,-0.8383,0.2197,0.151,-0.147,0.508,-12.45,28.949,1.664,36
0.4728,-0.5445,-0.3355,0.606,17.608885,-105.2781,212.34746,214.33673,0.017,-0.7817,-0.0546,0.533,-0.924,2.032,22.508,17.7,14.335,23
0.5186,0.0774,0.5628,-0.6389,31.092869,-49.343674,233.50171,114.75419,-0.541,-1.163,0.3056,0.431,0.362,-0.883,8.827,-26.216,-20.864,35
0.544,-0.3357,0.4971,-0.5865,12.15795,-80.1129,193.11044,148.69064,0.0327,-1.02,0.206,0.196,0.67,-0.054,27.736,-14.087,11.549,42
0.7305,-0.6674,0.1103,0.0931,13.503167,-80.48986,209.48694,209.09271,-0.4907,-1.3896,0.1108,-0.334,0.21,0.181,18.739,31.808,31.671,26
0.6019,-0.494,0.4466,-0.4404,24.748901,-82.48302,190.5286,170.94995,-0.2919,-0.955,0.1992,-0.002,-0.667,-0.137,4.615,-6.026,3.125,44
0.2217,-0.0732,0.611,-0.7563,16.770391,-94.78012,194.69574,147.54822,-0.311,-0.8061,0.3125,-0.089,-0.3,-0.64,27.749,-9.587,23.399,33
0.7281,-0.6442,0.1195,0.2009,12.292445,-74.20294,221.55061,224.59612,-0.2509,-0.6601,0.0732,0.251,-0.244,0.609,-7.21,12.158,-12.265,26
0.7415,-0.5892,-0.0742,0.3121,2.8897898,-76.250336,202.52184,217.35101,-0.2133,-0.9711,0.3242,-0.23,-0.108,-0.263,-22.766,28.384,-4.001,15
0.074,-0.2332,-0.6739,0.6971,21.60405,-91.846375,205.83188,154.12854,-0.1298,-0.7128,-0.038,-0.511,0.476,2.194,9.899,29.099,22.649,40
0.7499,-0.5195,0.3536,-0.2064,23.499966,-67.82816,209.26419,184.81763,0.4248,-1.601,0.4809,-0.871,1.638,-0.619,24.899,-28.187,27.899,31
0.5925,-0.4664,0.4385,-0.4888,20.65452,-83.47921,186.17726,162.19731,0.0009,-0.7861,-0.0029,0.007,-2.17,1.283,24.899,-7.187,19.949,28
0.3625,-0.2847,0.6421,-0.6125,19.973675,-84.65476,193.14893,171.74704,-0.0361,-1.123,0.1308,0.074,-0.404,0.322,24.362,-14.197,-18.381,34
0.537,-0.3398,-0.46,0.6199,12.502804,-82.81966,173.80869,218.90425,0.082,-1.0307,0.2602,0.131,0.305,-0.548,-2.1,31.649,2.263,36
0.2666,-0.1919,0.6147,-0.717,14.92134,-94.481064,185.14421,161.48058,-0.0986,-0.9521,0.2851,-0.096,0.573,-0.217,-12.287,-3.137,-10.5,38
0.3789,-0.5128,0.4436,-0.6296,16.256758,-108.56536,148.01031,176.27167,0.0537,-0.9794,-0.02,0.172,0.339,-1.017,-26.25,-16.187,-16.337,2
0.2036,-0.139,-0.5858,0.7719,4.2917023,-101.58133,177.84703,202.27867,0.2998,-1.1933,0.1831,0.316,-0.292,0.135,-10.566,28.411,-14.518,18
0.6078,-0.3934,0.4922,-0.4831,17.356071,-75.151115,200.51886,161.43102,-0.1982,-1.0502,0.1123,-0.301,2.099,-1.99,16.049,-10.937,29.699,28
0.2996,-0.2273,-0.6006,0.7054,16.809338,-94.24026,176.177,198.86063,-0.1547,-1.5751,0.0151,-0.483,-0.447,0.101,11.349,-30.416,-10.975,18
0.649,-0.4381,0.4995,-0.3703,26.98893,-69.933586,212.35063,176.32898,-0.4238,-0.8286,0.1367,0.437,1.874,-0.712,-20.734,-30.463,4.625,44
0.6921,-0.6371,0.2678,-0.2079,11.793265,-84.01825,191.56647,185.55705,-0.2685,-1.5883,0.4487,-2.541,-1.983,-1.725,-9.3,-23.087,-2.537,17
0.0712,0.1189,0.6821,-0.7179,0.48159173,-89.13193,208.86093,148.5972,-0.2875,-0.9702,0.0444,0.025,0.011,0.007,-11.537,3.013,-14.55,40
0.4745,-0.3725,0.5463,-0.5809,14.764592,-86.141914,188.70781,164.31046,0.0292,-1.142,0.0966,-0.052,0.98,-0.193,1.649,-26.837,28.049,1
0.2694,-0.0761,0.6764,-0.6811,16.070295,-82.75075,207.32181,152.0311,-0.3295,-0.9306,0.0478,0.055,-0.008,-0.685,-21.876,-0.276,-12.974,11
0.8165,-0.5133,-0.0304,0.2621,21.340311,-63.03467,196.97145,213.10243,-0.2197,-1.104,0.3979,0.146,1.16,-0.241,13.349,30.749,22.949,6
0.636,-0.4588,0.4654,-0.4102,9.804329,-75.54668,201.31702,171.27866,-0.1464,-0.8652,0.0898,0.194,-0.162,-0.203,27.749,-24.587,-31.637,32
0.6223,-0.4135,0.4551,-0.4842,8.528798,-76.581924,195.20699,158.44632,0.1284,-1.018,0.1718,0.178,0.568,-0.479,-4.5,-25.337,-16.337,30
0.1502,-0.2086,-0.6104,0.7491,0.67619556,-102.03122,192.62674,175.70583,-0.1484,-0.9887,0.1738,-0.004,-0.005,-0.01,-21.887,-1.487,-16.2,41
0.2532,-0.0969,0.637,-0.7215,5.211899,-89.873764,197.76514,151.12817,-0.2636,-0.9091,0.1918,-0.016,0.248,0.407,-6.15,28.949,-8.537,33
0.4866,-0.5177,0.4462,-0.544,0.10562549,-97.05846,166.19104,171.15453,0.125,-1.0063,0.0668,0.006,0.019,0.011,-1.2,-3.587,28.049,2
0.4598,-0.3674,0.5067,-0.6298,9.415456,-91.01881,180.30003,155.08594,0.039,-0.665,0.1484,-0.104,0.593,-0.577,12.586,20.849,30.149,42
0.2338,-0.1689,-0.6231,0.7269,6.2665844,-95.45732,175.5001,196.6236,0.4589,-0.9414,-0.0029,0.987,-2.655,0.361,-21.05,15.17,12.124,18
0.5963,-0.3926,0.4731,-0.5161,21.8279,-77.85928,194.56686,156.21643,-0.1811,-0.9409,0.2939,-0.013,0.238,0.046,6.899,5.863,21.749,32
0.0676,-0.0727,-0.6172,0.7804,3.9719841,-103.21016,182.80307,182.34337,-0.0317,-0.9897,0.1704,-0.18,-0.723,-0.06,-13.05,31.049,-15.587,7
0.6305,-0.6702,0.2039,-0.3341,9.9106455,-95.55241,158.7849,160.86923,0.0844,-1.7993,-0.4184,-0.158,-1.056,1.819,22.936,-25.937,3.763,17
0.6141,-0.4318,0.4456,-0.4875,15.534837,-78.96782,191.728,158.94843,0.0043,-1.1547,0.1411,0.481,0.397,-0.906,30.899,30.149,-19.037,32
0.109,0.1489,0.6409,-0.745,37.978878,-90.39639,215.37538,134.63614,-0.4638,-0.8666,-0.1557,1.233,0.762,-0.356,-4.337,0.313,27.299,29
0.6415,-0.6298,0.1502,-0.4112,4.518999,-89.986496,148.7063,137.4121,0.2343,-0.8935,0.2412,-0.447,-1.623,-1.114,-12.554,-30.917,-17.396,5
0.4831,-0.4052,-0.4752,0.6135,16.54043,-91.9726,183.5734,205.48203,0.0166,-1.0668,0.1372,0.948,-1.872,0.432,-24.437,-17.537,-19.037,46
0.4178,-0.3594,0.4979,-0.6695,24.032959,-96.13532,174.00792,153.1673,-0.208,-0.9257,0.312,-0.364,1.057,-0.839,-1.8,21.899,9.149,47
0.2093,-0.0057,0.7043,-0.6782,22.29213,-81.35179,211.80923,151.33463,-0.3193,-1.3637,-0.0771,0.356,-0.756,1.335,-23.376,-25.926,8.776,11
0.6717,-0.5357,0.3706,-0.3526,33.860764,-79.499535,191.91252,172.55098,-0.1005,-0.9013,0.2187,-0.445,-0.4,-1.124,-2.1,-18.287,-32.237,3
0.3954,-0.4755,0.4492,-0.6447,16.425293,-105.90957,154.59236,166.83673,0.3159,-1.1254,0.1533,-0.034,-0.364,1.337,-1.95,-8.837,-28.337,28
0.5982,-0.6736,0.2963,-0.3169,20.767218,-96.20561,170.96255,182.57562,0.1899,-1.2299,0.0463,-0.42,2.821,0.038,24.697,19.217,5.914,20
0.7341,-0.6783,0.0147,-0.0264,2.207385,-85.48807,178.48894,178.00024,0.1225,-0.9926,0.0937,-0.115,-0.31,0.236,-15.0,2.713,-9.737,14
0.7158,-0.6925,0.0531,-0.0716,7.5570536,-88.20495,177.43753,176.78023,-0.0273,-1.4438,0.0571,-0.323,0.285,0.166,6.149,-27.437,-24.887,14
0.1489,-0.0919,-0.6047,0.7769,13.333392,-101.86371,176.58699,197.61983,-0.1176,-0.9384,0.2958,-0.396,0.748,-0.075,25.199,-17.237,26.699,7
0.7768,-0.6292,0.0201,0.0079,6.0418053,-77.93141,183.90714,183.56355,-0.0654,-0.9399,0.2075,-0.025,0.002,-0.079,4.049,9.613,16.649,37
0.6592,-0.5418,0.2867,-0.4354,5.5494785,-84.21774,171.40375,151.4071,0.2583,-0.6831,0.2666,-0.007,0.187,-0.351,21.599,-14.837,19.199,21
0.469,-0.3627,0.5616,-0.577,0.80360436,-84.97329,191.1797,165.74971,-0.1748,-0.9921,0.0859,0.064,-0.059,-0.106,6.149,-17.237,-4.95,42
0.6886,-0.3728,0.5759,-0.2347,13.398796,-51.769608,240.56729,187.5374,-0.4184,-0.6416,0.0268,-0.529,-0.804,0.482,-28.637,32.399,17.399,48
0.1929,0.0019,-0.5802,0.7912,16.625294,-97.224304,160.58998,224.70514,-0.0415,-1.0073,0.5141,-0.394,0.678,-0.16,-11.837,-12.437,-25.337,49
0.4417,-0.3723,-0.3923,0.7157,17.561749,-97.82237,195.00876,231.96115,0.0668,-1.3066,0.5039,-0.5,1.71,-0.154,27.449,-25.187,-14.087,46
0.6368,-0.4897,0.3985,-0.4424,6.71554,-81.06109,187.0662,162.5559,-0.143,-0.9228,0.1601,0.218,0.227,-0.523,-25.337,-2.387,19.049,32
0.0797,-0.1727,0.5768,-0.7943,25.776514,-108.29912,163.71039,192.2246,0.2607,-1.0361,0.3149,-0.276,-0.984,0.271,-3.6,-20.087,-32.537,25
0.6312,-0.4213,0.4287,-0.4899,5.952657,-77.19734,191.48499,155.08565,-0.1083,-1.0541,0.1499,-0.089,-0.774,0.036,-19.783,1.709,-9.542,4
0.726,-0.5509,0.2722,-0.3086,10.848053,-77.24814,185.08064,165.94849,-0.0151,-0.8945,0.0986,0.095,-0.064,0.044,-6.3,29.849,-4.787,27
0.125,0.0011,-0.6281,0.7679,12.303056,-97.69989,165.06168,206.52766,0.2802,-0.7807,0.2788,0.101,1.063,0.022,12.449,-2.987,29.399,7
0.3431,-0.4027,0.4146,-0.7403,17.381418,-111.61394,153.64624,146.54553,0.1855,-1.0927,0.289,0.034,-0.302,0.471,27.899,-5.237,-32.537,43
0.7303,-0.6518,0.1883,-0.0793,21.90166,-81.23113,198.07442,193.003,0.4077,-0.9516,-0.1118,0.27,-2.321,0.756,-24.75,-2.387,3.164,17
0.4288,-0.315,0.5078,-0.6774,24.873283,-92.24949,180.77795,147.07974,-0.165,-0.9692,0.2622,-0.273,0.968,-0.918,25.486,-21.587,24.599,47
0.3297,-0.1141,0.6442,-0.6805,1.642829,-82.26813,206.52104,147.86049,-0.2705,-0.9638,0.1499,-0.01,-0.018,-0.031,13.848,-30.445,-25.018,35
0.7949,-0.5868,0.1096,-0.1078,10.297053,-73.178505,184.24773,176.19693,-0.0454,-1.0825,0.311,-0.257,-0.328,0.681,-11.25,14.563,12.149,50
0.5187,-0.3468,0.5076,-0.594,9.380006,-83.116104,190.52734,151.8466,0.0224,-0.9306,0.1196,0.07,0.036,0.115,-27.9,-1.787,4.799,42
0.2587,-0.0893,0.6339,-0.7232,10.644504,-89.40358,199.12947,148.8894,-0.2768,-0.9599,0.2163,-0.266,0.031,0.639,29.849,-32.237,-23.687,33
0.5999,-0.4024,0.4334,-0.5386,4.969992,-79.83431,187.61633,149.62047,-0.207,-1.0273,0.0615,0.348,-0.145,0.972,-16.35,28.349,2.699,47
0.4392,-0.3665,-0.5481,0.6101,10.638005,-89.71305,176.52878,195.48648,0.1987,-1.3041,-0.123,0.367,-2.949,1.209,-22.129,28.023,-0.899,22
0.4379,0.0097,0.6207,-0.6501,20.206087,-63.428368,228.70908,126.52295,-0.3637,-0.8027,0.0976,0.333,-1.584,1.917,-10.972,5.57,6.135,35
0.6608,-0.5594,0.3087,-0.3936,2.7731638,-84.67277,176.86452,161.33842,0.1064,-1.1381,0.1269,-0.032,-0.428,0.378,6.149,-4.937,32.249,27
0.7069,-0.5707,0.3214,-0.2666,2.148403,-78.090805,194.98105,179.04291,-0.2358,-0.9462,0.2021,-0.108,-0.123,-0.25,27.149,-7.187,17.699,8
0.318,-0.1685,0.612,-0.7041,0.030113952,-89.2632,194.50798,151.5051,-0.1674,-0.9902,0.1958,0.003,-0.017,0.0,10.042,-18.882,24.717,45
0.2951,-0.1866,0.641,-0.6834,11.674922,-88.672905,192.69423,161.28441,-0.0668,-0.9584,0.1142,0.037,-0.035,0.075,11.999,9.613,6.149,38
0.3319,-0.1053,0.6448,-0.6803,0.6128403,-81.55491,207.90906,146.57819,-0.2822,-0.9604,0.1562,0.005,0.006,-0.006,14.898,-30.745,-25.318,35
0.7899,-0.5812,0.1944,-0.0159,32.141296,-69.25271,206.03638,197.25893,0.3769,-1.0742,-0.0683,0.44,-0.219,-0.468,-9.3,-23.087,-2.537,17
0.7214,-0.5977,0.256,-0.2378,9.301095,-80.01581,188.43468,176.3759,0.1704,-1.1621,-0.0571,0.16,-0.904,0.138,-21.15,-13.037,-11.687,8
0.2472,-0.1045,0.6161,-0.7404,12.235293,-93.127144,194.0214,149.86353,-0.2622,-0.8862,0.2802,-0.005,-0.06,-0.271,-23.687,-11.687,19.499,33
0.7531,-0.4401,0.2571,-0.4157,51.12232,-66.853485,181.65262,144.95921,0.0278,-0.8002,0.2885,0.56,-0.292,0.656,4.349,-28.487,6.613,39
0.1612,0.2616,0.7318,-0.6082,31.066288,-65.05749,249.97362,125.45475,-0.6113,-1.3383,-0.0429,0.747,0.486,-0.067,12.449,-12.887,-32.237,29
0.4208,0.0005,0.5837,-0.6943,16.480358,-68.52123,220.9285,121.08244,-0.2714,-1.0424,0.4013,0.156,1.535,-1.558,11.977,5.57,-14.564,35
0.4872,-0.4358,-0.389,0.649,23.344337,-96.41752,196.12933,221.34706,-0.1049,-1.0014,0.5268,-0.853,1.919,-1.642,27.449,-23.537,-14.087,46
0.5467,-0.3263,-0.4581,0.6202,12.754711,-80.85456,171.95412,220.87674,0.1132,-0.8398,0.4672,0.113,-0.263,0.135,-13.05,-30.587,-1.187,36
0.6072,-0.5201,0.3515,-0.4868,19.297922,-87.911354,172.48936,154.19318,0.4184,-0.5131,-0.0092,0.352,-0.642,-0.124,20.699,-5.087,20.849,30
0.6893,-0.4383,0.5489,-0.177,5.038278,-53.893375,241.41031,197.3664,-0.6503,-0.8095,-0.0834,-0.044,0.378,0.343,8.549,22.649,10.649,48
0.5971,-0.4427,0.392,-0.5419,6.9921026,-83.75331,178.97148,147.2264,-0.1713,-0.663,0.2949,0.441,1.381,-0.487,-3.923,27.589,-23.108,4
0.5133,-0.4612,0.5134,-0.5098,12.98319,-86.74229,186.21388,174.59026,0.0175,-1.2841,-0.0444,-0.219,1.381,1.04,3.299,25.199,-19.037,2
0.63,-0.2787,0.4487,-0.5691,16.364595,-67.727394,199.53413,137.36017,-0.0083,-0.83,0.2084,0.282,0.435,0.268,6.749,26.999,-2.55,47
0.1135,-0.1419,-0.6941,0.6965,22.17832,-90.51931,184.61182,175.49886,0.0703,-0.9692,0.2475,-0.001,0.35,-0.37,23.249,28.664,9.149,40
0.7782,-0.6214,0.076,-0.0475,13.899788,-77.09272,185.58078,181.92325,0.06,-0.7045,0.3227,0.163,-1.094,-1.829,20.549,-31.337,23.399,37
0.6093,-0.5275,0.4512,-0.383,16.810537,-81.373535,196.02008,180.92618,-0.1147,-0.9497,0.0917,-0.136,2.732,-1.183,-0.15,3.013,-16.787,31
0.0162,-0.126,0.6558,-0.744,12.16933,-96.65869,162.92828,198.62794,-0.0083,-0.8535,0.0849,0.514,0.867,-0.377,19.649,-14.987,28.049,10
0.4029,-0.3091,-0.6544,0.5601,18.482378,-79.4439,158.46475,184.536,-0.0986,-1.5507,-0.1059,-0.38,1.009,0.427,29.69,-24.237,-26.297,12
0.6982,-0.5781,0.3,-0.2969,5.887418,-80.843445,187.51846,173.28766,-0.1518,-1.4624,0.0273,-0.173,-1.325,0.394,-7.05,19.949,-11.987,8
0.3871,-0.3508,-0.4603,0.7177,11.006101,-101.631065,192.63013,215.66089,0.0546,-1.2788,0.4277,-0.183,0.063,-0.674,3.97,17.373,-10.349,22
0.0704,-0.0324,-0.647,0.7585,4.3732204,-98.50226,175.86003,188.75806,0.0185,-1.0263,0.0942,0.673,0.156,0.837,22.349,-8.687,30.749,7
0.4134,-0.0321,0.7331,-0.5389,18.960924,-58.05516,243.55312,148.57831,-0.25,-0.5581,0.0214,-1.721,0.157,1.089,6.61,8.58,19.786,13
0.5665,-0.4336,0.439,-0.5461,13.230037,-85.26353,182.203,153.90866,-0.1757,-0.7695,0.225,0.463,0.931,-0.192,24.753,14.895,25.707,4
0.6472,-0.551,0.3273,-0.4126,7.619777,-85.36869,176.98294,161.2817,-0.0371,-0.9057,0.2138,-0.021,-0.013,-0.481,-18.3,-4.487,-9.737,27
0.6436,-0.451,0.4636,-0.4091,10.272926,-74.46961,202.15572,170.15004,-0.1152,-0.9091,0.1005,0.313,-0.301,0.036,-29.237,-4.937,30.149,32
0.2695,-0.3313,-0.6354,0.6432,0.21441296,-92.36758,189.83698,171.0777,-0.0839,-0.9995,-0.0429,0.0,0.004,0.002,28.19,-12.387,24.389,12
0.3592,-0.2113,-0.5971,0.6853,25.711035,-88.247574,166.72311,207.76225,-0.0019,-1.101,0.2797,-0.233,0.061,0.209,17.399,-8.237,4.499,41
0.2468,-0.0983,0.6308,-0.7289,11.550137,-91.23581,196.15205,151.18121,-0.1264,-0.9824,0.2021,-0.18,-0.876,-0.039,-10.629,9.244,-29.113,45
0.6179,-0.6813,0.1217,-0.3729,3.965681,-95.56166,142.09567,139.19942,0.3935,-0.9252,-0.0268,0.087,-0.528,-0.076,-26.204,-25.967,-2.396,5
0.2773,-0.2269,-0.6246,0.6938,14.311161,-93.14336,176.76207,192.38408,0.0795,-1.0439,-0.2304,0.838,-2.629,0.15,-21.05,15.17,12.124,18
0.7148,-0.5943,0.2556,-0.2652,8.714531,-80.92645,184.94406,172.52156,-0.0366,-0.9233,0.0439,-0.248,0.036,0.026,19.049,-22.487,24.299,8
0.1193,-0.0652,-0.6079,0.7822,10.517531,-102.55196,176.06212,195.92542,0.1235,-0.9965,0.2802,0.011,2.278,-0.349,-7.65,17.549,-24.587,7
0.3511,-0.3866,0.4228,-0.7405,17.129566,-109.51881,156.80487,144.5502,0.3393,-1.0356,0.4267,-0.07,-0.848,-0.023,-23.087,-28.337,-6.887,43
0.2699,-0.1412,0.6158,-0.7265,6.815003,-92.46456,192.09282,152.85567,-0.1528,-0.9765,0.1948,-0.061,-0.127,-0.009,-12.879,9.994,-30.913,45
0.4119,-0.275,0.6711,-0.5514,15.772881,-75.742035,209.51704,172.14494,-0.1625,-0.9091,-0.1098,-0.104,0.57,0.003,-13.737,-20.797,-8.931,34
0.2568,-0.3468,-0.6127,0.6619,6.336513,-96.250496,196.30415,168.99704,0.2011,-0.8759,-0.1074,0.846,-2.007,1.805,-30.159,-31.587,-0.497,12
0.4714,-0.4341,0.5313,-0.554,0.056033555,-89.2647,182.15746,173.07652,-0.0249,-1.0083,0.0693,0.011,-0.019,-0.014,26.849,5.414,23.249,28
0.6293,-0.568,0.3523,-0.3963,39.259583,-87.145164,179.29639,169.17422,-0.1469,-0.9018,0.0825,-0.003,0.033,-0.838,-15.0,22.499,-11.837,3
0.0222,-0.0969,-0.5752,0.8119,10.185872,-109.187775,191.41022,167.01353,-0.1381,-1.1528,0.2158,0.251,0.543,-0.627,1.049,20.549,-26.687,7
0.1856,-0.2363,-0.5834,0.7544,6.0797353,-104.4887,193.22821,180.66016,0.3559,-0.8544,0.0244,0.096,-0.852,1.257,7.799,9.613,15.449,41
0.2864,-0.1486,0.6146,-0.7197,4.8431363,-91.3164,193.13449,151.962,-0.2651,-1.0024,0.1679,-0.094,0.476,0.251,7.792,-22.332,26.067,45
0.251,-0.325,-0.612,0.6757,6.564564,-96.93585,194.4767,172.33806,0.2382,-0.7197,-0.0161,1.236,-1.991,2.036,-14.709,8.449,-0.047,12
0.6606,-0.4876,0.4413,-0.3617,17.393251,-74.66745,202.95262,175.68788,-0.2724,-1.3369,0.0068,-0.355,-0.806,0.648,-25.984,-25.663,2.375,44
0.0763,-0.1085,0.667,-0.7331,20.84177,-95.58409,173.96248,184.17642,0.3354,-0.7114,0.2778,3.166,0.119,-1.019,-19.2,28.799,-1.487,10
0.7387,-0.6116,0.2685,-0.0887,3.8574157,-74.48664,209.18143,198.1532,-0.3593,-0.9052,0.0664,-0.229,-0.265,-0.246,13.499,-9.137,15.899,3
0.2714,-0.0576,0.6458,-0.7112,14.4055605,-85.37899,206.0986,144.7666,-0.331,-1.0415,0.1679,0.157,0.105,-0.28,-14.679,2.044,-24.763,45
0.054,0.0611,-0.6135,0.7853,7.2648454,-101.977806,165.0841,203.78854,0.4296,-0.9785,0.2509,0.325,0.503,1.778,28.949,-12.887,-5.987,49
0.4845,-0.3863,0.6285,-0.47,4.988085,-74.907524,210.20142,182.74248,-0.2397,-1.1508,-0.1352,-0.185,0.772,0.041,-1.887,-1.447,-8.331,34
0.0538,-0.2809,-0.6094,0.7394,58.46045,-99.155014,215.30722,141.30844,-0.3012,-0.8105,-0.164,1.548,2.041,-0.572,-25.637,-27.287,1.363,29
0.8003,-0.5804,0.0712,-0.1317,13.684192,-72.29395,176.61157,168.66318,-0.0756,-0.8281,0.2758,0.054,-0.016,-0.881,24.449,2.563,4.799,50
0.6762,-0.6689,0.1941,-0.2398,4.997903,-90.33173,173.51727,172.52757,-0.1997,-1.104,0.0541,0.854,1.179,3.545,10.049,-20.687,-25.037,17
0.4538,-0.2733,-0.535,0.658,40.12812,-85.47572,168.74544,214.40767,-0.1777,-1.0229,0.2246,-0.187,1.369,-0.459,-11.4,-16.487,15.599,41
0.7129,-0.6839,0.0272,0.1526,5.591373,-85.31184,206.2137,208.10406,-0.2109,-0.9682,0.1899,0.215,0.5,0.089,22.981,-14.84,23.093,26
0.7194,-0.6919,0.0412,-0.0427,3.6839461,-87.78141,180.021,179.51181,0.1875,-1.2895,0.081,0.266,-1.054,0.531,6.149,-27.437,-24.887,14
0.2104,-0.1709,0.623,-0.7336,21.696121,-97.146324,181.12277,167.36292,-0.0815,-0.7675,0.1879,-0.244,-0.013,0.1,-32.387,-21.437,2.099,38
0.6137,-0.6879,0.2762,-0.2715,14.231435,-95.25603,175.61,185.90973,0.1967,-0.9501,-0.0541,0.249,-1.458,0.138,-31.989,-16.919,-2.785,20
0.3212,0.014,0.7055,-0.6314,26.962317,-69.34893,230.26913,141.01814,-0.5112,-1.2402,-0.0961,-0.93,-1.521,1.936,-22.789,18.93,4.486,13
0.4495,-0.5304,0.4497,-0.5606,4.5530624,-100.97859,159.10573,176.18373,0.4355,-0.9428,0.1513,-0.254,0.208,1.694,4.186,26.999,11.113,2
0.282,-0.2624,-0.5735,0.7229,17.08427,-99.73469,185.31781,194.88997,-0.0732,-1.0615,0.2031,-0.23,-0.902,0.478,12.149,17.113,0.149,41
0.6835,-0.4304,0.5627,-0.1753,6.8175263,-52.686726,243.67374,197.74693,-0.6958,-1.0434,-0.0195,0.042,0.548,0.319,8.549,22.649,10.649,48
0.3124,-0.2052,0.6159,-0.6934,7.9622903,-90.67843,189.90527,158.57233,0.0468,-0.9707,-0.0776,0.366,-0.766,0.731,-13.487,-9.587,-4.05,38
0.7088,-0.6973,0.0851,-0.0628,3.759978,-88.8348,183.73927,183.33302,0.1469,-1.083,-0.0024,0.226,-1.082,1.115,1.949,29.549,-9.437,19
0.2703,-0.2062,-0.6081,0.7172,11.904302,-95.330376,176.78554,197.57788,-0.1098,-1.1464,-0.0322,-0.475,-1.928,-0.171,0.7,-26.786,-20.876,18
0.2711,-0.1434,0.616,-0.7254,6.544266,-92.408264,191.98946,153.10106,-0.1445,-0.9863,0.1953,-0.055,-0.13,-0.022,-12.879,9.994,-30.913,45
0.5347,-0.3862,-0.5895,0.4661,11.762606,-74.42306,149.91963,183.89871,0.2133,-1.0581,0.0654,-0.292,-0.828,0.114,3.451,17.517,30.669,16
0.7557,-0.4379,0.2566,-0.4136,51.44715,-66.418655,181.97575,145.10307,0.0424,-0.8168,0.2944,0.509,-0.218,0.624,4.349,-28.487,6.613,39
0.476,-0.3928,-0.5516,0.561,10.491305,-85.905914,171.0842,190.84033,0.1064,-1.018,-0.1406,0.238,0.197,0.516,-8.235,11.817,14.619,16
0.4841,-0.1068,0.5871,-0.6399,19.417492,-68.34348,217.0725,133.78458,-0.1005,-1.2382,0.2109,0.371,-0.366,-0.184,3.671,15.49,-22.154,35
0.5055,-0.3788,0.5138,-0.5804,22.742565,-85.59945,187.70084,158.47218,-0.4877,-0.8247,0.1494,-0.141,-0.161,-0.691,16.049,-17.837,31.949,30
0.6172,-0.453,0.3954,-0.5072,4.9362555,-81.85829,182.56352,152.00613,0.2709,-0.725,0.2783,0.469,0.649,1.34,-1.975,-26.433,-15.497,4
0.7201,-0.667,0.1602,-0.1034,10.870704,-84.69233,190.01935,186.81325,-0.1206,-0.8159,0.0957,0.346,0.531,-0.849,-24.437,-7.187,27.899,19
0.6496,-0.5468,0.3227,-0.418,4.411536,-85.021484,176.36464,159.51196,-0.0161,-1.0,0.1752,-0.119,0.051,-0.279,-3.6,21.164,-29.237,21
0.8083,-0.5714,0.098,-0.1021,11.3865185,-70.84075,183.60233,175.41669,-0.0493,-1.019,0.2622,-0.017,-0.128,-1.143,-9.75,-11.537,-32.237,50
0.2852,-0.1777,0.6448,-0.6864,13.420708,-88.802315,192.7903,161.45027,0.0825,-0.7563,0.1157,0.127,0.228,0.424,0.299,-26.537,22.499,38
0.6959,-0.5743,0.2696,-0.3362,9.521856,-82.14765,178.95158,163.82762,0.0263,-1.0117,0.163,0.306,0.02,0.45,13.949,25.949,-20.537,9
0.541,-0.3939,-0.5105,0.5398,26.654242,-82.144745,167.57993,198.66876,-0.2646,-0.9301,0.1259,-0.071,0.084,0.14,-16.187,-5.837,-21.437,46
0.7254,-0.6745,0.0663,0.1198,9.166485,-82.72615,206.82411,207.86345,-0.4077,-0.8022,0.0454,0.286,0.386,-0.135,22.381,-16.19,23.243,26
0.4488,-0.5365,0.4335,-0.568,4.5155272,-102.626305,156.25371,173.43044,0.0385,-0.9477,0.0302,0.237,-0.684,-0.133,-5.25,-3.587,29.099,2
0.7608,-0.6043,0.1073,-0.2106,32.436855,-77.78083,171.62395,161.64342,-0.02,-0.9335,0.2827,-0.153,-0.275,0.647,30.449,-24.587,0.599,37
0.5367,-0.3942,0.5597,-0.493,11.200281,-77.91589,202.58484,171.63756,0.1972,-0.6079,0.0371,-0.097,-2.021,0.862,32.012,-17.347,-16.581,34
0.819,-0.5064,-0.0044,0.2694,23.445036,-61.046955,200.26155,216.07117,-0.2407,-0.9741,0.394,0.252,0.538,-0.322,-23.25,25.649,-12.737,6
0.4661,-0.382,0.5925,-0.5344,4.7069273,-82.03054,196.30267,175.41544,-0.0717,-1.082,-0.0937,0.034,-3.059,0.528,0.812,-29.947,-18.681,34
0.265,-0.1362,0.6149,-0.73,7.680961,-92.834404,192.0247,152.50104,-0.1582,-0.9707,0.1987,-0.054,-0.065,0.055,-13.779,9.544,-29.263,45
0.1462,-0.2503,0.5629,-0.7739,17.654726,-108.59341,159.63536,189.3805,0.1943,-1.1,0.5419,0.484,1.324,-0.487,14.699,-13.337,27.599,25
0.3155,-0.2666,0.555,-0.7219,7.5308704,-98.826164,176.79651,157.84459,-0.0927,-1.0527,0.3041,0.135,0.018,0.231,18.449,-7.787,17.249,25
0.2624,-0.2044,-0.6506,0.6825,38.86733,-90.39045,173.3175,190.70421,-0.1386,-1.0576,-0.0288,-0.457,-1.925,1.073,-24.887,-14.687,4.049,40
0.4222,-0.3004,-0.5473,0.6571,6.9255347,-89.47063,173.68033,206.61679,0.1103,-0.7597,0.3793,-0.139,0.94,-0.006,-14.779,-31.363,-18.749,22
0.6729,-0.3726,0.5003,-0.3972,29.702208,-64.83496,214.34082,166.87828,0.1743,-1.2207,0.2744,0.092,0.955,-0.603,8.249,28.049,-16.037,28
0.1041,0.2238,0.7095,-0.66,32.219677,-76.71213,232.79047,132.27116,-0.1679,-0.9848,-0.206,-1.569,-1.77,0.7,-0.433,-23.099,-15.264,29
0.6462,-0.539,0.2743,-0.4653,36.47088,-85.3774,166.76814,145.54114,-0.0566,-0.9609,0.3286,0.298,-0.232,0.428,14.249,-2.987,-32.537,39
0.6659,-0.5103,0.2776,-0.4679,40.42483,-81.25048,170.69276,143.84084,-0.0092,-1.1762,0.2031,0.759,-1.451,1.181,-31.337,-17.837,-24.887,39
0.7782,-0.5521,0.0109,0.2989,14.059694,-66.44549,208.03694,223.00406,-0.519,-1.2343,0.4492,-0.318,0.258,-0.68,-25.916,-8.216,0.049,15
0.3643,-0.3206,-0.5357,0.6909,1.9132636,-97.4697,184.94588,201.57089,-0.0429,-0.9975,0.059,0.155,0.177,0.175,-5.329,-23.863,-27.599,22
0.629,-0.4295,0.4188,-0.4943,4.6322813,-78.32229,189.13457,154.15125,-0.1083,-1.02,0.3193,0.046,0.894,-1.312,-13.523,32.089,-7.208,4
0.0583,-0.0518,-0.5903,0.8033,7.531896,-107.13776,181.2712,185.29012,0.3232,-1.1352,0.2392,-0.847,-0.566,-0.474,4.199,19.649,-25.487,7
0.2678,-0.0961,0.6777,-0.6779,15.865872,-83.495514,204.70444,155.26834,-0.2319,-0.7138,-0.0537,0.426,-0.794,0.465,-23.526,-6.276,-9.974,11
0.7752,-0.5417,0.0404,0.3222,17.056332,-63.234787,212.5657,228.53436,-0.2998,-0.9633,0.4921,-0.51,0.401,-0.888,21.77,-14.816,21.349,15
0.5826,-0.3613,0.4575,-0.5662,5.424625,-78.67609,190.72816,146.6102,0.1176,-1.0087,0.3676,0.296,0.099,-1.19,-16.65,22.799,5.999,47
0.2515,-0.1061,0.6326,-0.7246,10.739052,-90.89845,195.91194,152.09996,-0.0458,-1.249,0.2641,-0.181,-0.286,0.119,-6.15,28.949,-8.537,33
0.7636,-0.5566,-0.0806,0.3171,6.0299907,-71.86465,199.08966,217.00078,-0.1215,-0.8247,0.2065,0.752,1.165,0.886,19.07,7.084,19.399,15
0.4042,-0.3215,-0.5256,0.6759,6.763278,-94.0812,180.89687,206.67244,0.0854,-0.8413,0.2485,0.543,-0.117,-0.628,-26.537,-2.987,-30.737,46
0.5506,-0.4968,-0.4314,0.5136,6.180912,-90.1241,183.56177,195.93263,0.1918,-1.0732,0.187,0.182,-0.307,-1.222,2.721,22.65,-15.214,23
0.3795,-0.058,0.6789,-0.6258,1.8020452,-70.1395,224.90398,143.73245,-0.4082,-0.85,0.0541,0.015,0.361,-0.23,-18.876,-0.726,-14.774,11
0.8017,-0.576,0.0758,-0.1397,14.771624,-71.841064,176.59247,167.96857,-0.1616,-0.8598,0.2983,-0.07,0.823,-0.901,10.499,-17.087,12.899,50
0.4156,-0.3902,-0.443,0.6918,11.463596,-100.99082,195.01433,214.52394,0.1865,-1.3999,0.416,-1.01,1.936,-0.49,-27.137,27.599,-6.887,46
0.2582,-0.2659,-0.5874,0.7193,16.152988,-99.91496,187.75664,188.20613,-0.1508,-0.7998,0.143,0.259,1.233,-1.492,31.199,-10.487,5.099,41
0.7172,-0.6613,0.0937,0.1984,8.703586,-78.11164,219.42503,222.65446,-0.2358,-0.8334,-0.0668,0.096,-0.564,0.393,8.389,27.608,-31.315,26
0.4406,-0.314,0.6599,-0.5211,8.441695,-74.863716,210.53879,175.92691,-0.267,-0.9062,-0.145,0.067,-0.961,0.105,-9.387,-9.547,-9.381,34
0.6641,-0.58,0.2879,-0.3735,0.20687877,-85.80741,174.98245,162.41003,0.0283,-0.9902,0.1596,-0.001,0.038,-0.019,11.399,-1.787,19.199,27
0.1642,0.0308,0.7088,-0.6852,28.915386,-82.69668,210.95892,151.52017,-0.2807,-1.4477,0.0346,0.089,-0.461,1.288,4.81,-29.376,26.176,11
0.1574,-0.0357,0.7087,-0.6867,28.560932,-85.39888,199.89194,162.14584,-0.4755,-1.3066,0.1557,0.143,0.73,0.55,-29.526,-15.576,-0.674,11
0.6008,-0.5169,0.3148,-0.522,17.125988,-88.88938,165.48119,143.68149,0.0419,-0.8803,0.31,-0.051,-0.212,-0.068,-5.1,28.199,-6.437,21
0.6734,-0.5133,0.4177,-0.3292,12.458873,-75.14855,202.60667,178.67194,-0.2939,-0.934,0.1372,-0.027,0.036,0.278,-7.59,-9.523,-6.503,44
0.6919,-0.5309,0.3713,-0.3185,14.040022,-76.40414,197.21326,175.68166,0.1049,-0.8994,-0.1289,0.506,-1.75,2.666,-25.35,30.149,-14.087,31
0.1567,-0.3825,-0.568,0.7116,72.59771,-103.95209,218.07092,146.11804,-0.706,-1.0419,-0.1982,0.149,0.458,-0.059,-7.232,28.988,-17.091,29
0.2513,-0.1791,0.6436,-0.7003,15.641259,-91.70096,187.50616,165.50304,0.1166,-1.061,0.289,0.306,-1.651,0.261,30.749,-17.987,5.999,38
0.335,-0.1331,0.63,-0.6877,0.16642135,-84.09712,203.08755,147.8883,-0.2436,-0.9765,0.1718,0.013,-0.012,-0.002,-22.937,-4.487,12.299,33
0.6553,-0.565,0.2943,-0.4056,4.2236304,-85.94642,173.00328,158.17038,0.0854,-1.1015,0.29,-0.203,-0.063,0.378,0.0,-23.987,-28.187,27
0.5218,-0.3101,0.5139,-0.6061,10.808314,-80.52227,194.29366,147.38867,-0.1665,-1.3696,0.2744,-0.069,1.253,-0.004,27.736,-14.087,11.549,42
0.3496,-0.3449,0.4317,-0.7565,20.229069,-107.22551,162.00087,138.9336,0.0356,-0.8051,0.3857,0.014,0.172,-0.324,-7.95,-16.637,14.713,43
0.787,-0.6145,0.0506,0.0154,5.0462217,-75.514015,189.09583,187.94939,-0.0146,-0.7153,0.1503,0.314,-1.159,2.054,-18.587,-8.687,-14.25,37
0.132,0.13,0.7252,-0.663,24.744705,-77.962074,223.4123,143.00128,0.0566,-0.8227,-0.1533,-1.406,-1.166,1.056,28.649,-14.387,-29.237,29
0.8073,-0.5828,0.0922,0.0051,2.6275268,-70.68762,193.54587,190.01523,0.017,-1.1049,0.2182,0.026,0.108,-0.384,16.349,30.914,0.449,50
0.6461,-0.3258,0.6161,-0.3109,25.322872,-53.535713,239.99213,179.97885,-0.6831,-0.663,0.039,0.567,0.955,-0.122,15.749,10.949,27.299,48
0.3213,-0.2248,0.603,-0.6946,7.1164017,-91.90693,187.34586,158.73993,-0.1928,-0.9086,0.1738,0.078,0.047,-0.354,-10.637,1.963,-16.05,38
0.0184,-0.2411,-0.6456,0.7243,18.040705,-93.92707,214.44995,142.32083,-0.2099,-1.1713,0.2177,0.43,0.015,-1.864,-19.937,-32.387,16.199,40
0.3313,-0.1021,0.6457,-0.6803,0.23763129,-81.37188,208.32095,146.3121,-0.2875,-0.9482,0.1484,0.007,-0.004,-0.006,15.948,-30.595,-25.918,35
0.5211,-0.5644,-0.3379,0.5437,16.259987,-100.60202,205.97057,207.00217,0.102,-1.1108,0.0112,0.146,0.029,0.633,32.108,-16.486,2.935,23
0.4104,-0.4536,0.4703,-0.636,14.867315,-102.06345,161.07709,166.04398,0.0629,-1.0468,0.2534,0.218,2.229,-1.397,3.599,-7.937,-26.387,28
0.7236,-0.6305,0.1206,0.2535,15.498761,-70.93842,225.59744,231.48312,-0.3164,-1.0971,0.0815,0.223,0.646,0.336,25.189,31.208,-30.715,26
0.6447,-0.4496,0.4852,-0.3829,25.754839,-72.24817,208.0905,174.95012,-0.2558,-0.9794,0.0546,0.373,1.01,-1.227,-28.084,-3.476,16.325,44
0.3288,-0.4918,0.4623,-0.6604,22.852041,-110.82883,144.77356,183.6376,0.1733,-1.3818,0.0937,-0.285,0.534,0.026,-19.2,14.699,-8.687,2
0.005,-0.2661,-0.629,0.7303,20.46797,-94.18612,219.44116,135.04076,-0.1113,-0.9091,-0.1049,-0.172,0.291,1.352,25.949,11.563,6.149,40
0.524,-0.7508,0.2094,-0.3429,7.02595,-111.087524,138.71762,171.92993,0.2773,-0.9301,-0.1757,0.825,-0.092,0.21,0.449,-0.437,0.613,39
0.5698,-0.3799,0.5889,-0.4288,13.817761,-69.8389,217.50557,176.48438,-0.1933,-1.185,-0.0297,-0.159,1.537,0.026,8.312,-21.697,-23.931,34
0.6222,-0.2539,0.4982,-0.5477,18.533108,-65.44686,207.93776,142.72359,-0.4633,-1.436,0.3374,-0.437,0.572,-0.49,1.799,-24.887,-4.8,47
0.4426,-0.3786,-0.5024,0.6389,9.882641,-93.7276,183.70253,203.3338,0.1718,-1.0605,0.1489,1.052,-1.894,0.81,13.499,30.899,20.113,46
0.535,-0.2531,-0.543,0.5956,12.787395,-74.018,155.399,214.64104,0.1176,-0.9672,0.374,-0.348,0.152,-0.151,19.199,-6.137,-29.837,36
0.6758,-0.5827,0.3358,-0.3013,2.3910031,-81.987,190.71977,178.40079,-0.0957,-0.9179,0.1416,0.191,0.723,-0.221,8.965,28.023,-25.974,44
0.584,-0.4193,0.5403,-0.4371,20.44083,-74.40964,207.91658,174.80449,-0.1616,-0.6103,-0.0585,-0.126,-0.225,0.899,21.662,31.539,-32.631,34
0.7663,-0.6231,-0.1528,0.0318,11.915751,-76.24454,161.21977,166.76357,0.186,-0.9238,0.1948,0.16,-0.584,0.87,-5.1,-19.787,27.599,6
0.731,-0.6822,-0.0015,-0.0111,3.115812,-86.034035,178.14157,178.04073,0.5229,-1.1987,0.3828,-0.254,0.974,-0.189,8.399,-6.437,-24.137,14
0.7428,-0.5031,0.3581,-0.2582,23.710825,-68.8572,204.82262,178.04016,-0.267,-1.0434,0.0366,0.206,0.11,0.103,-5.1,-25.187,-26.687,3
0.7093,-0.5387,0.2334,-0.3898,38.518345,-78.63771,172.2387,149.7415,0.1284,-1.102,0.3061,0.218,-0.018,0.114,17.699,-5.387,28.499,39
0.4319,-0.4102,-0.4936,0.6335,12.084907,-96.65608,189.07947,198.77881,-0.1293,-1.018,0.2304,0.005,0.561,0.1,32.099,31.963,-16.337,46
0.7291,-0.6695,0.1001,0.1005,12.043186,-81.02723,209.03526,209.04411,-0.5854,-1.3769,0.0312,-0.263,-0.11,0.261,22.489,-15.728,-31.615,26
0.2227,-0.1131,0.6296,-0.7356,14.273158,-93.98262,191.0264,156.53842,0.0639,-0.9658,0.2905,0.394,0.445,-0.538,-9.757,-28.932,-19.069,45
0.706,-0.5686,0.2864,-0.3099,7.683571,-80.09975,185.00653,168.99016,-0.0673,-1.2241,0.1362,0.396,0.4,0.109,15.599,25.349,-21.137,8
0.2401,0.1147,0.7543,-0.6001,13.706356,-64.96862,241.7818,139.59158,-0.5253,-0.7973,-0.1689,1.204,1.06,-0.176,-1.787,-1.637,32.399,29
0.665,-0.5637,0.2748,-0.4054,3.6529427,-85.04027,171.36742,155.01982,0.125,-1.041,0.1127,0.342,-0.517,0.761,19.649,-7.787,21.599,21
0.8217,-0.5204,-0.0429,0.2279,17.13841,-64.23148,193.07814,207.38368,0.0068,-1.4184,0.6215,-0.425,0.606,-0.718,-1.8,30.449,22.499,6
0.3383,-0.4366,0.5234,-0.6487,16.40149,-102.86488,157.56454,182.67294,0.3095,-0.6743,0.1328,-0.341,0.476,-1.841,1.349,-28.187,-29.687,1
0.5657,-0.406,0.4614,-0.5496,0.6728152,-82.91447,186.96854,153.88791,-0.1474,-0.9604,0.246,-0.083,-0.029,-0.065,-4.5,-22.487,-10.65,47
0.3923,-0.0581,0.6763,-0.6206,0.096529834,-68.94786,226.08015,143.06128,-0.4643,-0.8901,0.0781,0.003,-0.002,-0.001,-20.226,-1.326,-15.074,11
0.0299,-0.0737,-0.6277,0.7743,19.406614,-101.96958,187.29913,173.30165,-0.0776,-0.9833,0.1245,0.022,0.776,0.211,-9.22,13.804,-7.288,18
0.3587,-0.3255,-0.4296,0.762,16.089804,-105.048096,195.0875,226.16724,-0.0864,-0.8681,0.2968,-0.032,-0.765,-0.311,-16.579,-9.163,-17.999,22
0.7009,-0.6921,0.1007,-0.1392,11.26718,-89.64922,174.22418,173.63687,-0.1049,-1.2783,0.0327,-0.182,-0.647,0.132,-16.65,-12.737,-6.887,19
0.6019,-0.6807,0.0806,-0.4095,9.157321,-93.62084,133.0374,125.08831,0.4057,-0.8295,0.1005,-0.628,-0.09,-1.024,-18.554,-32.267,-9.896,5
0.3658,-0.0105,0.6379,-0.6774,10.264935,-72.73285,221.78455,131.93843,-0.4565,-1.1152,0.1455,0.354,0.376,-0.07,-32.526,-30.876,9.226,11
0.4497,-0.3893,-0.3888,0.7035,18.721746,-97.990326,196.16956,230.05673,-0.0317,-1.3574,0.5043,-0.768,2.363,-0.394,27.449,-23.537,-14.087,46
0.3277,0.0054,0.6501,-0.6854,12.449291,-75.13035,221.16495,133.42653,-0.3881,-0.6953,-0.1938,0.283,-1.09,0.657,-32.526,-30.876,9.226,11
0.735,-0.5099,0.3627,-0.2607,23.737955,-69.87702,204.78821,178.86162,-0.3012,-0.8515,-0.0087,0.532,-0.068,0.412,-5.1,-25.187,-26.687,3
0.7802,-0.6225,0.0579,-0.0138,8.871304,-76.90835,186.87643,184.72952,0.122,-0.9423,0.1367,-0.156,-0.682,0.114,1.799,0.914,13.199,37
0.8128,-0.5441,0.2001,0.0559,16.290043,-61.994934,212.43404,204.83972,-0.25,-0.9379,0.2446,0.036,-0.064,-0.135,17.099,17.563,9.749,50
0.4872,-0.4358,-0.389,0.649,22.606796,-96.41752,196.12933,221.34706,-0.1049,-1.0014,0.5268,-0.853,1.919,-1.642,27.449,-23.537,-14.087,46
0.4622,-0.2918,-0.5195,0.6566,1.6555659,-86.40621,171.39331,214.87936,0.0102,-0.934,0.2397,0.102,-0.078,-0.161,29.249,-2.387,29.099,36
0.1466,-0.1476,-0.6319,0.7465,25.855392,-99.03523,183.47316,184.40091,0.0024,-0.8466,0.0917,-0.341,-1.068,0.451,-13.487,0.463,-6.9,40
0.6866,-0.536,0.3793,-0.312,29.394058,-76.64099,198.61113,177.96751,0.0878,-0.9199,0.3959,-0.67,-0.491,-0.876,-27.15,-25.487,-6.737,3
0.7268,-0.6561,0.0625,0.1929,7.8669157,-79.16922,213.83528,217.6095,-0.2709,-0.8535,-0.0649,0.227,0.039,0.299,21.655,-23.183,22.433,26
0.0398,-0.0843,-0.6252,0.7748,18.062094,-102.27189,187.68616,173.6217,-0.0825,-0.9848,0.2031,-0.116,0.278,-0.067,-9.22,13.804,-7.288,18
0.2502,-0.2034,-0.5935,0.7373,10.807366,-98.66,180.27846,197.47415,-0.0781,-0.915,-0.0156,-0.351,0.312,0.122,-30.97,-15.146,12.511,18
0.7232,-0.6687,0.1564,-0.0718,8.007365,-83.95463,194.0522,190.9881,0.0371,-0.9848,0.1508,0.052,-0.454,-0.414,15.599,18.613,-24.437,19
0.3869,-0.0608,0.6245,-0.6756,9.468354,-74.65753,216.61452,135.02313,-0.1328,-0.8471,0.2343,0.841,0.479,2.201,31.764,23.12,11.235,35
0.7913,-0.4106,0.2444,-0.3812,55.489063,-60.644104,185.47282,147.28838,0.2006,-0.9868,0.623,-0.224,0.546,-0.715,29.699,-11.687,22.799,39
0.5383,-0.3698,-0.4448,0.6127,15.141202,-84.974815,177.78493,217.45927,-0.3842,-0.8227,0.457,-0.173,0.586,-0.294,14.699,-17.837,-20.987,36
0.6225,-0.372,0.5071,-0.4655,10.143856,-71.252396,206.5421,162.16843,-0.1113,-0.9169,0.3432,0.21,1.317,-1.019,14.249,12.013,30.749,30
0.3018,-0.2741,-0.5626,0.7191,20.747066,-99.51462,185.14264,197.5219,0.0874,-0.9462,0.2231,0.077,0.066,-0.511,16.949,18.613,1.049,41
0.5099,-0.3913,0.4556,-0.6158,11.319216,-89.195786,178.44902,147.62741,0.2915,-0.7275,0.2441,-0.56,0.348,-1.537,-5.7,-22.037,-1.2,47
0.773,-0.5547,0.2815,0.1239,31.638685,-57.22231,230.08229,220.83476,-0.3398,-1.1323,0.2636,-0.196,0.508,-0.689,-32.387,3.313,9.899,37
0.6948,-0.6004,0.28,-0.2796,6.210182,-82.82193,185.44478,174.66295,-0.1811,-0.9467,-0.0893,0.08,0.014,0.045,1.049,-24.737,-26.087,8
0.6745,-0.3639,0.5975,-0.2353,15.801022,-50.741413,243.75858,188.27281,-0.5605,-0.8237,0.0209,-0.173,-0.162,-0.002,-31.487,14.113,-3.0,48
0.2105,-0.0978,-0.653,0.7208,8.643432,-91.46696,166.45496,201.14644,0.1313,-1.2534,0.0166,0.354,0.127,-0.076,-10.607,-18.699,-19.107,18
0.4589,-0.3986,-0.3597,0.7078,21.74641,-97.253525,198.68446,236.17485,-0.0068,-1.1264,0.5961,-0.129,0.31,-0.427,-11.687,-7.037,32.399,46
0.7453,-0.5935,0.2917,-0.0834,0.19615218,-71.34396,213.24474,199.6559,-0.3579,-0.9492,0.0966,0.029,0.068,-0.012,14.249,-9.137,14.849,3
0.0628,-0.069,-0.6425,0.7605,17.573084,-99.57487,182.38582,180.94226,0.2211,-0.9077,-0.0976,0.474,-1.66,0.032,-21.67,5.704,5.311,18
0.6565,-0.662,0.1117,-0.3439,8.174885,-90.52057,148.61142,142.20197,0.7109,-0.9218,0.1625,1.702,-0.359,1.48,24.232,17.075,16.859,5
0.4316,-0.3253,0.6501,-0.5339,9.233023,-77.33396,205.55894,176.43422,0.0151,-1.1381,0.0092,-0.016,1.253,-0.761,28.262,20.589,-10.881,34
0.4073,0.0127,0.6333,-0.6578,16.88009,-66.24549,227.96577,128.09164,-0.4565,-0.8198,0.0874,0.0,-1.032,2.107,3.071,22.99,-15.104,35
0.5924,-0.4249,0.461,-0.5058,18.41376,-80.48387,190.95444,159.13252,-0.2319,-0.7109,0.1787,-0.167,0.077,-0.059,-23.687,-12.887,-30.437,32
0.7315,-0.6604,0.1119,0.1273,11.621529,-78.62847,213.50038,213.92273,-0.2827,-0.9907,0.0717,-0.085,-0.06,-0.032,7.639,14.872,24.021,26
0.2848,-0.1622,0.6172,-0.7151,4.2223387,-91.674644,191.52486,154.73602,-0.1958,-0.9619,0.2324,0.081,0.149,-0.132,9.292,-18.882,26.517,45
0.4271,0.0082,0.6252,-0.653,18.170805,-64.63782,228.2059,127.2899,-0.3959,-0.83,0.0776,0.319,-1.531,1.926,-10.972,5.57,6.135,35
0.3269,-0.0965,0.6238,-0.7032,5.427988,-83.78235,205.49799,142.22812,-0.3188,-1.2075,0.3452,0.64,1.326,-0.858,-32.237,-27.287,23.399,33
0.6406,-0.7063,0.2077,-0.218,6.9928555,-95.31706,174.76804,181.78065,0.4008,-0.9218,0.0424,0.004,-0.815,-0.111,-28.689,-11.219,-0.235,20
0.2568,-0.2626,-0.5786,0.7281,16.212425,-101.08552,188.17845,189.99344,-0.0024,-0.9721,0.1513,0.359,0.305,-1.975,-7.937,-12.737,-3.3,41
0.2398,-0.3479,-0.6052,0.6746,7.3605413,-98.113464,199.82283,166.86725,0.1928,-0.8208,-0.0317,0.604,-0.945,1.854,-7.193,-10.248,-9.39,12
0.5135,-0.468,0.4011,-0.5968,13.086788,-94.83183,166.50488,148.74948,0.1977,-0.8657,0.1572,0.099,0.504,-0.188,-17.25,-28.487,-3.6,47
0.6112,-0.4995,0.3431,-0.509,16.79443,-86.43476,171.94522,148.24818,-0.0629,-0.914,0.3125,-0.013,0.238,-0.392,-25.2,-24.887,-9.137,21
0.253,-0.1045,0.6716,-0.6884,18.812817,-85.85759,200.64606,157.1723,-0.2021,-0.8769,0.0439,-0.018,-0.071,-0.667,-26.526,-0.126,-12.074,11
0.6667,-0.6727,0.18,-0.2654,3.017425,-91.89076,167.03072,166.6392,-0.142,-1.0175,0.0493,0.363,1.285,-0.395,22.949,-1.187,29.849,17
0.6646,-0.5532,0.3365,-0.3726,35.423714,-82.89357,183.4564,167.35638,-0.0961,-0.8398,0.1879,-0.043,0.24,-0.719,3.749,-22.637,29.849,3
0.39,-0.1963,-0.6057,0.6651,29.893303,-83.444824,159.84207,210.29477,-0.0234,-1.1225,0.2626,-0.249,-0.114,-0.283,8.849,27.149,25.649,41
0.2664,-0.0857,0.6003,-0.7491,12.756335,-92.03157,197.22179,142.09598,-0.2841,-0.6313,0.207,-0.361,0.326,-1.893,3.577,12.62,-6.014,35
0.2959,0.0543,0.7835,-0.5435,0.07062553,-58.591778,248.6244,147.66302,-0.5307,-0.8339,-0.2329,-0.011,0.006,-0.017,-1.787,-1.187,32.099,29
0.0981,-0.1107,0.6973,-0.7013,12.267682,-90.455025,177.89125,181.93958,0.0961,-0.9277,-0.0698,0.917,-0.668,0.437,10.949,-20.987,-28.187,10
0.649,-0.3278,0.6203,-0.294,22.974573,-52.225285,242.19589,181.78111,-0.6098,-0.705,-0.0249,-0.469,-1.11,0.229,-24.9,22.949,26.999,48
0.5995,-0.4159,0.503,-0.4631,4.9988976,-76.095436,201.49887,167.24841,-0.1005,-0.8945,0.0449,0.264,-1.689,0.704,1.199,32.249,-11.687,30
0.4199,-0.286,-0.6158,0.602,18.86673,-82.38476,161.77647,195.71407,-0.1972,-0.9677,0.1757,-0.28,-0.85,-0.788,22.19,-31.737,27.089,12
0.7998,-0.5648,0.0965,-0.1785,18.868477,-71.204895,175.96841,164.5109,-0.0556,-0.8837,0.416,-0.07,0.109,-0.279,-13.95,9.914,12.899,50
0.4804,-0.4398,0.518,-0.5543,2.121226,-89.749794,181.07895,171.18515,-0.0805,-0.9848,-0.0395,0.109,-0.301,-0.006,25.199,5.263,21.599,28
0.5188,-0.3397,-0.4787,0.6213,9.240464,-84.30061,173.48415,215.5431,0.019,-1.1259,0.3876,-0.203,-0.729,-0.042,28.799,-19.937,-25.037,36
0.4446,-0.3642,0.5097,-0.6401,10.274199,-92.41301,178.77153,155.58835,-0.0302,-0.687,0.1748,0.02,0.477,-0.285,12.586,20.849,30.149,42
0.6208,-0.6183,0.1975,-0.4395,18.370771,-92.521805,151.09082,140.89452,0.0864,-0.8032,0.2641,-0.17,0.256,-0.554,-4.95,18.449,-6.287,9
0.4868,-0.5182,0.4457,-0.5437,0.01619878,-97.084305,166.13026,171.14978,0.1279,-1.0024,0.0771,-0.001,0.009,0.004,-1.2,-3.587,28.049,2
0.6913,-0.5039,0.3932,-0.3368,11.660871,-74.39529,199.59344,173.72029,-0.1274,-0.7026,0.0727,0.662,-1.218,0.329,0.115,25.773,-9.774,44
0.1393,-0.0864,-0.598,0.7845,12.266373,-103.19745,177.19904,197.3772,-0.0937,-0.6689,0.184,-0.306,-0.266,-0.416,25.199,-17.237,26.699,7
0.6042,-0.6452,0.2003,-0.4223,17.708239,-96.38442,148.8532,145.47186,0.475,-1.0244,0.1225,0.274,0.279,0.781,17.399,-21.887,-24.737,9
0.1588,-0.0813,0.627,-0.7582,21.656727,-98.054306,187.23268,161.1546,-0.333,-1.4692,0.2221,-0.405,-0.062,-0.051,11.542,-26.532,-32.569,45
0.4004,-0.1122,0.6277,-0.658,8.2157,-75.921776,213.3131,141.60037,-0.3012,-0.9833,0.1079,0.282,0.934,-0.508,21.749,14.414,-31.637,33
0.3194,-0.2757,-0.5709,0.7042,20.730679,-97.04646,182.26167,197.93333,0.1074,-1.3769,0.1582,-0.204,-2.73,1.86,-8.4,-8.987,10.799,41
0.4605,-0.2943,-0.5194,0.6568,1.3340861,-86.74736,171.84169,214.49625,0.0537,-0.9653,0.2875,0.071,-0.039,-0.139,29.249,-2.387,29.099,36
0.2392,-0.1058,0.6287,-0.7322,12.444766,-92.446365,194.01257,153.00124,-0.166,-1.3193,0.2177,-0.317,0.245,0.293,20.399,-27.287,29.549,33
0.7243,-0.6515,0.2024,-0.0991,20.08157,-81.715324,197.45346,192.12843,0.2495,-0.852,-0.2641,0.143,-2.809,0.976,-24.75,-2.387,3.164,17
0.5089,-0.304,0.5202,-0.6147,10.522778,-81.39086,193.94104,147.43631,-0.225,-1.1972,0.3481,0.041,0.98,-0.744,27.736,-14.087,11.549,42
0.7867,-0.5813,0.0865,-0.1884,19.49527,-73.5213,172.74828,162.22795,-0.0864,-0.8813,0.3139,-0.184,-0.265,0.166,-20.1,-14.987,-31.337,50
0.7162,-0.6214,0.2752,-0.1585,10.59837,-79.125496,200.7697,191.1559,-0.2041,-1.0952,0.2685,0.387,1.961,-0.463,10.349,-8.837,18.299,3
0.788,-0.568,0.199,0.1288,22.954477,-62.56209,219.67067,215.98468,-0.2407,-1.3315,0.2661,-0.059,0.263,0.361,32.249,-14.537,-0.45,37
