q0,q1,q2,q3,MotionDeg,Roll,Pitch,Yaw,accX,accY,accZ,gyrX,gyrY,gyrZ,magX,magY,magZ,0
0.6669,-0.3307,0.625,-0.2345,20.986006,-47.36966,248.34294,186.8914,-0.7319,-0.79,0.1347,1.048,0.489,-0.767,29.849,10.063,0.449,48
0.6581,-0.3209,0.6306,-0.2569,22.166224,-48.346207,247.35307,184.58997,-0.7158,-0.7416,-0.0883,-0.732,-0.992,0.147,10.349,-0.887,4.949,48
0.4712,-0.5295,0.4596,-0.5349,2.936267,-97.63787,165.0516,177.7028,0.1049,-0.7045,0.0678,-0.079,0.854,1.448,-23.85,31.649,-15.137,2
0.2357,-0.1548,0.6307,-0.7229,19.421934,-94.00628,187.27455,161.76492,0.1875,-0.6528,0.4262,0.189,-1.326,-0.688,16.499,29.999,20.249,38
0.0491,0.0145,-0.5879,0.8072,1.9246181,-106.8861,172.90033,195.75604,0.041,-0.9653,0.3017,-0.023,-0.172,-0.142,-8.537,0.164,26.099,49
0.7563,-0.642,0.1121,-0.0556,24.60053,-80.07287,189.75731,185.85976,0.7905,-1.3618,0.1181,-0.015,-1.235,-1.809,-31.937,-13.487,17.249,17
0.4684,-0.4289,0.5203,-0.5707,2.1144059,-90.66396,179.77617,169.70305,0.207,-1.0004,0.0581,-0.079,-0.612,0.682,-22.95,0.313,-16.337,28
0.5017,-0.5438,-0.33,0.5861,16.36298,-101.87823,208.86043,215.25842,0.1137,-0.7304,0.0156,0.341,-0.96,1.864,-10.778,2.85,13.585,23
0.1795,-0.4504,-0.5277,0.6974,21.800533,-107.28366,225.86131,140.1917,-0.2509,-1.0922,-0.0952,-0.982,1.019,-0.037,28.64,14.149,-23.297,12
0.0191,-0.106,-0.6492,0.7528,13.156807,-98.16943,193.55571,165.2932,-0.3813,-0.9721,0.1137,0.76,1.845,-0.581,-15.737,2.863,-13.2,40
0.4684,-0.3615,0.5633,-0.5766,0.54637045,-84.83516,191.46686,165.88489,-0.1435,-0.9975,0.082,0.02,-0.075,-0.021,6.149,-17.237,-4.95,42
0.1915,-0.2483,-0.6558,0.6866,33.04785,-93.56186,190.09955,172.31445,0.0268,-1.0034,0.083,-0.609,-1.81,0.666,9.299,13.813,-4.35,40
0.3706,-0.3771,0.4286,-0.7325,14.33375,-106.4163,160.23761,142.22488,0.1191,-1.0761,0.4682,-0.162,-0.325,-0.179,-23.537,-13.487,-29.537,43
0.2306,-0.1261,0.6429,-0.7193,21.712605,-92.06159,191.51903,159.39429,-0.1899,-0.8759,0.4946,0.254,-1.056,-1.215,23.249,29.999,20.999,38
0.246,-0.2246,-0.5999,0.7273,10.427242,-98.61292,183.06606,191.99808,-0.0092,-1.3574,0.0683,0.287,-2.512,1.733,-32.237,-21.137,1.649,41
0.7177,-0.6746,0.172,0.0125,10.184139,-81.55711,208.71304,205.8509,-0.2192,-0.8823,-0.0742,0.074,0.067,0.297,6.149,10.063,-16.637,19
0.7417,-0.6412,0.1865,-0.0611,23.809013,-79.10948,200.29898,194.47244,0.1616,-0.8896,-0.1347,0.254,-0.047,0.352,-4.35,9.613,-10.337,17
0.4169,-0.3198,-0.5284,0.6668,6.1000814,-92.37423,178.69421,207.05931,0.1049,-0.978,0.0991,-0.368,0.768,-0.497,-16.429,17.523,-10.199,22
0.7868,-0.5925,0.1687,0.0357,17.019032,-69.76464,207.86432,202.37144,-0.2861,-1.2729,0.2197,-0.716,-0.288,-0.87,-21.137,-7.337,-5.55,37
0.5196,-0.4097,0.5184,-0.5414,17.58607,-84.52452,189.65341,165.41864,-0.1118,-1.1215,0.2221,0.006,-0.152,0.528,10.949,-14.837,-29.237,30
0.1951,-0.1533,0.6634,-0.7058,23.400812,-92.182144,184.53459,171.3883,-0.0039,-1.332,0.291,0.09,-0.841,0.181,3.299,31.649,20.999,38
0.7718,-0.4157,0.2574,-0.4064,53.895782,-63.06054,184.47406,145.32268,0.0922,-0.8559,0.4555,-0.492,1.116,-0.911,32.549,-17.687,21.599,39
0.3187,-0.169,0.6115,-0.7041,0.10563951,-89.26534,194.48161,151.43413,-0.1562,-0.9902,0.2001,0.008,-0.012,0.004,9.292,-20.082,25.317,45
0.5274,-0.4046,-0.5806,0.4699,12.758335,-76.624084,153.80522,182.40501,-0.1352,-1.1396,-0.0151,-0.169,0.521,-0.228,-26.535,18.417,12.819,16
0.677,-0.4794,0.5226,-0.1965,1.8823448,-59.94584,235.1644,198.25288,-0.5996,-0.8222,-0.1293,-0.128,-0.205,0.018,30.449,-26.537,0.299,48
0.3953,-0.3113,-0.5293,0.6829,33.413456,-94.36825,180.61739,207.10028,-0.1953,-0.9135,0.1733,0.731,-0.589,-1.475,2.249,-8.837,19.949,41
0.5253,-0.5952,-0.3016,0.5278,20.831259,-102.3518,211.37117,209.83377,-0.0224,-0.9843,0.1914,-0.203,0.769,-1.449,20.271,18.3,-5.464,23
0.3902,-0.2823,0.6891,-0.5413,16.113295,-75.20561,209.2231,176.9524,-0.3706,-0.9145,0.0126,-0.007,-0.345,-0.48,-11.337,-16.897,-9.981,34
0.6854,-0.7049,0.0497,0.1754,0.17298129,-87.324486,214.97598,216.39716,-0.3217,-0.9648,-0.0014,0.003,0,0.005,27.331,-14.84,25.643,26
0.2047,-0.0423,0.6692,-0.713,24.624874,-87.9313,201.9726,152.98453,-0.3813,-0.5087,0.0429,0.18,1.198,-0.945,-16.326,-14.526,-10.124,11
0.5011,-0.4091,-0.4564,0.6108,19.57226,-91.08973,183.88622,209.12836,-0.0654,-0.9877,0.2851,-0.407,-1.255,-0.624,-17.987,-18.437,29.849,46
0.6046,-0.5261,0.2975,-0.5186,38.549175,-89.0293,163.32834,141.84445,-0.0039,-1.2089,0.4545,-0.207,0.531,0.014,12.599,30.299,2.113,39
0.5319,-0.2549,-0.5241,0.6142,11.174484,-75.57144,159.02417,218.20259,0.1279,-0.9218,0.352,-0.321,-0.366,-0.456,23.099,-6.437,28.649,36
0.7279,-0.6373,0.1534,0.2008,14.963494,-71.216606,225.59264,227.57553,-0.4648,-1.0332,0.3125,0.047,0.46,-0.849,21.739,20.708,-25.915,26
0.6311,-0.4581,0.4469,-0.438,9.461267,-77.66882,195.70537,166.32652,0.0532,-0.9594,0.1118,0.207,-0.382,0.248,-3.9,-3.287,-29.237,32
0.7246,-0.4795,0.3856,-0.3102,14.30762,-69.368774,203.7546,173.22565,-0.0341,-0.7329,0.1044,0.331,-0.887,1.058,20.065,4.473,-12.624,44
0.4693,-0.397,0.4963,-0.6129,10.181891,-91.80602,177.99876,158.02046,0.1811,-0.9282,0.4013,-0.015,0.272,-0.533,-6.75,-30.737,2.549,42
0.1195,-0.3227,-0.5969,0.7246,63.73485,-101.4191,213.53513,148.06552,-0.6743,-1.1083,-0.0786,-1.05,-1.663,-0.445,-20.537,2.263,-28.337,29
0.4638,-0.3844,0.3879,-0.6975,4.88956,-95.87322,165.66814,128.99477,0.0976,-0.8354,0.2216,0.361,-1.142,0.509,-32.537,-22.037,-21.587,43
0.5544,-0.3334,0.4671,-0.6026,10.435926,-80.07601,189.89711,142.50922,0.0195,-1.0117,0.2758,-0.483,0.434,-0.937,5.549,20.999,2.549,47
0.6199,-0.5823,0.3517,-0.3909,38.34607,-88.760025,177.95148,171.5504,-0.1074,-1.4238,-0.0034,-0.135,-0.101,0.681,-24.6,20.549,-7.787,3
0.8007,-0.5924,0.0871,-0.0158,0.25463554,-72.40852,190.75638,186.87158,-0.1411,-0.9604,0.2753,-0.008,0.008,-0.033,31.049,0.013,-7.5,50
0.6896,-0.5967,0.275,-0.3042,9.608758,-83.67409,181.6386,170.52377,-0.2094,-0.9829,0.0087,-0.017,0.155,-0.432,25.349,-5.687,19.199,8
0.0775,0.0428,-0.5852,0.8059,5.997863,-105.007996,166.10979,208.19238,0.1035,-0.9379,0.3159,0.125,0.106,-0.265,-15.137,-1.037,31.499,49
0.2874,-0.1611,0.6083,-0.722,4.271613,-92.38586,191.06842,152.79915,-0.1879,-1.0039,0.1523,-0.074,0.337,0.391,7.792,-22.332,26.067,45
0.7585,-0.615,-0.1239,0.176,18.63112,-78.89469,182.69502,191.08113,-0.0649,-0.8105,0.3129,-0.102,0.673,-0.499,-24.566,-2.666,-8.351,15
0.3191,-0.1841,-0.6186,0.6939,47.191364,-89.03496,166.38231,205.02936,-0.102,-0.9472,0.081,0.685,0.597,-0.865,26.099,32.249,20.549,40
0.8205,-0.5373,0.1941,0.0147,13.8911705,-62.602257,207.87994,198.59023,-0.2304,-1.1948,0.3808,-0.207,0.661,-1.474,31.499,-1.187,0.149,50
0.0333,-0.0558,-0.6219,0.7803,20.47228,-102.929665,184.28716,177.42479,0.1005,-0.9311,0.5463,0.609,-0.568,-0.051,-12.67,11.404,-3.688,18
0.1897,-0.2181,-0.606,0.741,5.3117514,-101.13384,189.11836,182.3866,-0.0556,-1.0146,0.1655,0.154,-0.211,-0.107,23.849,25.363,4.499,41
0.7022,-0.7013,0.1002,-0.0699,3.2743008,-89.53001,184.9076,184.82257,0.0898,-0.8935,-0.02,0.153,-0.959,0.64,-16.65,-12.737,-6.887,19
0.3402,-0.3399,-0.5185,0.7069,5.975348,-102.07735,191.85188,198.96896,-0.1245,-0.996,0.1875,-0.01,0.032,-0.245,-8.329,2.387,-14.249,22
0.6501,-0.5078,0.3459,-0.4469,9.8586235,-82.33441,179.61955,156.07741,0.0483,-1.061,0.289,-0.154,0.692,-0.611,-10.35,8.263,-21.887,21
0.6414,-0.3226,0.6216,-0.3129,25.156954,-53.419777,240.62373,179.97617,-0.7895,-1.038,0.0947,-0.409,-0.515,0.142,7.349,7.499,31.649,48
0.1396,-0.2446,0.562,-0.7776,21.540707,-108.91896,159.69899,189.85568,0.1015,-1.2241,0.4492,0.403,1.843,-0.557,14.699,-13.337,27.599,25
0.0918,-0.2953,-0.6393,0.7039,57.383934,-95.25804,212.98143,146.84671,-0.6845,-1.2377,-0.1445,-1.53,-1.652,-0.683,-30.887,-21.137,-20.387,29
0.7138,-0.5422,0.2908,-0.3343,9.844822,-77.85192,184.85095,164.48077,0.0234,-1.0952,0.2558,-0.094,-0.661,0.255,26.399,-15.587,19.499,8
0.6253,-0.5229,0.3265,-0.4783,11.604895,-86.46626,171.52103,151.07224,0.0039,-1.145,0.2861,-0.104,-0.139,0.168,1.649,-21.137,-26.237,21
0.7621,-0.6043,0.082,-0.2172,33.630035,-77.233376,167.50223,157.66695,-0.3115,-1.0971,0.2202,0.005,1.46,-0.86,-19.187,-22.487,5.549,37
0.6241,-0.4688,0.4507,-0.4329,25.508749,-78.627014,195.46591,168.65126,-0.184,-0.8291,0.1372,-0.115,0.163,-0.567,-28.084,-3.476,16.325,44
0.7233,-0.6688,0.0892,0.1462,7.566317,-80.47325,213.1929,214.5957,-0.208,-1.1909,-0.1157,-0.226,-1.421,0.676,-0.91,-28.178,-30.415,26
0.5208,-0.4546,-0.4251,0.5841,26.413692,-92.37423,188.24506,207.5859,-0.2685,-0.8496,0.3051,-0.032,0.269,-0.055,16.649,15.164,-2.987,46
0.5606,-0.4129,0.4208,-0.5813,14.181648,-85.57398,179.2764,145.59323,-0.1132,-0.8906,0.4013,0.118,0.698,-0.393,9.016,26.745,-14.342,4
0.6434,-0.3262,0.6205,-0.3072,24.732265,-53.24428,240.93112,180.68192,-0.6831,-1.1528,0.1396,-0.215,-0.19,0.062,7.349,7.499,31.649,48
0.2252,-0.1202,-0.6028,0.7558,5.6738973,-97.208374,171.74106,206.5645,0.1889,-0.6616,0.2329,0.333,0.672,0.228,-9.407,-21.699,-23.157,18
0.4791,-0.4005,0.5388,-0.5653,12.483834,-87.04535,186.61569,167.91101,0.2924,-1.3115,0.1669,-0.227,0.143,-0.455,-3.3,18.599,-17.687,1
0.348,-0.5043,0.4463,-0.6521,20.503363,-111.05727,144.75562,179.33394,0.2309,-1.1669,0.164,-0.287,0.428,-0.112,8.536,19.349,4.813,2
0.3407,-0.1009,0.6475,-0.674,9.967705,-80.1097,209.95709,145.87643,-0.207,-0.914,0.0913,-0.058,0.647,0.102,12.557,23.546,-20.395,45
0.1499,-0.2079,-0.6106,0.7492,0.6383909,-102.0153,192.5575,175.75844,-0.1289,-0.9873,0.1733,-0.002,-0.024,-0.011,-21.587,-1.637,-16.35,41
0.4534,-0.5274,-0.3713,0.615,14.023957,-105.83435,209.92229,207.17845,-0.1503,-1.2509,0.2812,0.211,0.205,-0.724,11.721,22.5,-20.014,23
0.4204,-0.1209,0.6148,-0.6561,10.429552,-75.1633,212.87462,140.07384,-0.3041,-1.1005,0.1572,0.255,0.746,-0.294,-1.35,-20.987,-7.187,33
0.1089,-0.0913,-0.5598,0.8162,13.17041,-109.912964,182.29085,193.24986,-0.0185,-0.8549,0.5014,-0.236,1.113,-1.243,-25.337,23.263,-23.987,49
0.444,-0.3506,0.4208,-0.709,10.191124,-95.84775,169.91644,131.83269,0.1079,-0.9868,0.4291,-0.176,0.286,-0.308,-0.15,4.813,-6.587,43
0.5592,-0.4079,0.5533,-0.4633,14.126652,-76.02793,205.72682,173.82385,0.0014,-0.5957,-0.0288,-0.031,-0.195,1.011,0.812,-29.947,-18.681,34
0.4706,-0.3617,0.5451,-0.5919,3.2936304,-86.38886,188.48824,162.16223,-0.2099,-1.0043,0.1469,0.33,0.048,-0.216,4.199,-18.437,-2.4,42
0.5121,-0.3985,0.4487,-0.6143,11.087411,-89.601944,177.30966,147.35074,0.0566,-0.6674,0.2089,-0.267,1.109,-1.193,-18.75,22.949,8.399,47
0.4289,-0.0824,0.7931,-0.4244,18.019417,-48.728027,259.94427,163.66574,-0.2124,-1.0463,-0.3315,-0.302,-1.025,0.574,13.079,-0.923,-9.057,13
0.1831,-0.1456,0.6645,-0.7096,25.24303,-92.580345,183.91426,172.01073,-0.0893,-1.6293,0.0405,-0.348,-0.571,0.296,3.299,31.649,20.999,38
0.5252,-0.5081,-0.429,0.5308,3.856959,-93.66795,189.1033,195.06305,0.0043,-1.0019,0.0253,0.23,-0.017,0.431,3.05,-24.933,-20.172,23
0.4769,-0.3971,0.4987,-0.6049,9.694759,-90.750656,179.54117,158.48932,0.0693,-1.1469,0.3203,0.365,0.792,-0.579,-6.75,-30.737,2.549,42
0.6516,-0.4696,0.4675,-0.3689,21.387741,-73.264755,206.37746,176.28862,-0.1479,-1.1074,0.0776,-0.915,-0.198,0.039,11.965,-7.976,0.575,44
0.8104,-0.5285,-0.0172,0.2521,19.800917,-64.518936,198.80783,213.094,-0.0419,-0.8583,0.2626,-0.15,0.779,-0.083,-23.1,-8.687,-27.887,6
0.5675,-0.4144,0.4584,-0.544,1.3651409,-83.24962,186.42906,154.84077,-0.0888,-0.9819,0.2246,-0.049,-0.043,0,-4.05,-22.187,-9.9,47
0.5569,-0.4476,0.369,-0.5942,13.379641,-89.083664,169.581,139.2522,0.2192,-1.1396,0.3681,0.238,-1.067,-0.284,-7.589,-26.201,-26.172,4
0.2583,-0.1064,0.639,-0.7166,9.364342,-89.54484,197.40369,152.30283,0.0561,-1.0844,-0.0356,-0.163,-2.093,1.118,-7.957,22.204,-21.319,45
0.4211,-0.4912,0.4687,-0.6013,2.91735,-101.72445,159.38834,173.37387,0.2373,-0.9531,0.143,0.014,0.185,0.369,-11.85,-7.037,29.849,1
0.3065,-0.1135,0.6282,-0.7059,6.8660913,-86.35636,201.497,146.92792,0.1406,-0.8481,0.1445,0.166,-0.615,1.062,-12.607,26.104,-16.669,45
0.0528,-0.1001,0.6341,-0.7649,20.0607,-100.81249,171.61623,186.52722,0.2402,-0.7099,0.3779,-1.665,0.493,-0.348,-19.2,28.799,-1.487,10
0.3728,-0.3578,-0.613,0.5975,12.842818,-88.29384,176.5953,180.76059,0.0449,-1.1816,-0.0043,-0.579,-1.169,0.719,-16.343,-7.548,-16.74,12
0.6968,-0.5788,0.3046,-0.2941,5.850013,-80.812225,188.40265,174.33235,0.1,-1.0205,0.0629,0.156,-0.076,0.08,22.949,31.799,-22.937,8
0.1955,-0.2069,-0.6053,0.7433,4.7101884,-100.87799,186.86913,185.68192,0.2348,-0.8901,0.1474,0.309,-1.987,1.564,28.049,-1.187,1.949,41
0.7601,-0.5934,-0.1035,0.2434,8.587366,-76.75885,191.78862,203.72215,-0.3754,-1.1005,0.0688,0.35,-1.33,0.886,-18.266,-16.616,8.449,15
0.8076,-0.5317,-0.0308,0.2529,19.80266,-65.50318,197.40039,212.0929,0.0327,-0.8579,0.208,0.66,-0.123,0.333,28.786,-15.887,-7.487,6
0.6366,-0.4816,0.461,-0.3874,21.817802,-76.244995,201.79193,175.43915,-0.0102,-1.1196,0.0527,-0.086,0.273,-0.614,-5.284,10.473,-6.924,44
0.4626,-0.1004,0.7745,-0.4194,15.110989,-48.608486,258.07895,163.7411,-0.5498,-0.9497,-0.2207,1.068,0.966,-0.266,26.279,1.627,9.092,13
0.4957,-0.4001,-0.5742,0.5141,8.702039,-81.183784,162.40337,184.99571,-0.0703,-0.5927,-0.0092,0.111,0.249,0.29,-32.535,26.217,21.369,16
0.0074,0.0431,0.5453,-0.837,10.843287,-113.52542,186.55309,168.59578,-0.1596,-0.705,0.1787,0.156,-0.578,1.172,21.749,-14.987,12.613,49
0.7598,-0.6357,-0.1355,0.0089,14.238081,-77.72236,160.86957,164.81935,0.0952,-1.437,0.1782,-0.171,0.165,-0.15,19.036,26.099,1.363,6
0.3322,-0.1053,0.6448,-0.6801,0.63049316,-81.51949,207.95287,146.56262,-0.2827,-0.9536,0.1499,-0.004,-0.007,-0.008,14.898,-30.745,-25.318,35
0.5398,-0.4146,-0.4662,0.565,26.126642,-86.17722,176.73439,204.7677,-0.2329,-0.7915,0.3076,-0.071,0.451,-0.097,-22.937,-14.087,-22.037,46
0.6923,-0.4931,0.4156,-0.3236,13.558098,-72.22395,204.75372,176.64479,-0.1513,-1.0522,0.0629,-0.333,-0.471,0.928,-19.384,-18.913,-0.324,44
0.5848,-0.6778,0.3093,-0.3205,20.005001,-97.02173,170.65263,185.81158,0.2182,-1.0766,-0.0317,0.09,-0.976,0.041,31.747,-23.369,-6.085,20
0.5896,-0.4544,0.4066,-0.5296,5.7961354,-84.87202,179.83235,152.08417,-0.0473,-0.9423,0.2998,0.062,-0.078,0.071,-25.333,0.809,-6.992,4
0.716,-0.562,0.3241,-0.2574,0.32181603,-76.36939,197.16995,179.60036,-0.1958,-0.9716,0.1674,-0.04,-0.028,-0.054,27.149,-4.937,16.199,8
0.1914,0.0183,-0.6167,0.7632,16.232714,-92.69891,155.92786,221.354,0.2529,-1.1289,-0.0483,0.084,-3.369,0.27,-30.137,-19.637,-11.687,49
0.6263,-0.6171,0.1994,-0.4323,17.32215,-91.98857,152.46738,142.25012,0.0161,-0.7539,0.1733,-0.046,0.316,-0.594,-4.95,18.449,-6.287,9
0.3616,-0.4455,0.5216,-0.6312,9.869159,-101.18837,160.15073,181.17508,0.1875,-0.6933,-0.0336,0.214,-0.821,-1.993,-11.4,18.599,-11.837,1
0.1143,-0.1528,0.5976,-0.7787,27.715351,-105.0419,170.64546,180.71439,-0.1191,-1.1103,0.2382,-0.972,-1.367,0.625,-9.078,17.59,-12.554,35
0.6761,-0.5734,0.3302,-0.3239,29.460411,-82.2083,187.63947,174.00366,0.0541,-0.9189,0.1528,0.026,0.072,-0.82,-31.5,-22.787,-5.687,3
0.1841,-0.0687,0.6144,-0.764,19.77448,-97.46654,191.2127,153.08444,-0.2309,-0.9882,0.2373,-0.33,-0.686,0.009,-21.622,-24.416,-10.214,35
0.2922,-0.1934,0.6534,-0.6709,11.701182,-87.49203,193.03386,164.51169,-0.0976,-0.9414,0.059,0,-0.317,-0.015,11.999,10.363,8.849,38
0.4496,-0.3649,0.6403,-0.5045,3.9684582,-77.01771,205.60861,181.2771,-0.1694,-1.0541,-0.0971,0.126,0.11,0.024,-4.737,-1.597,-5.631,34
0.6982,-0.5156,0.2988,-0.3965,17.401684,-78.11103,180.74416,155.9658,-0.1752,-0.8735,0.3466,-0.193,0.432,0.159,22.049,-12.887,16.649,8
0.4268,-0.3537,-0.4559,0.6962,10.566911,-97.18813,188.86086,218.4191,0.2055,-0.7812,0.2553,0.95,0.09,0.329,-29.387,-2.837,-20.687,46
0.2346,-0.3285,-0.602,0.6888,8.579155,-99.13042,198.249,170.09721,0.1884,-0.6665,0.0693,0.765,-0.582,2.033,-14.709,8.449,-0.047,12
0.6196,-0.6782,0.1978,-0.3418,12.75765,-97.197174,155.38367,159.20236,-0.0986,-0.6445,0.0107,0.165,0.798,-0.084,2.51,-29.069,-4.885,20
0.0654,0.0742,-0.615,0.7822,8.871415,-100.71278,161.8771,208.40027,0.5483,-1.0078,0.1884,0.38,-0.058,1.856,28.949,-12.887,-5.987,49
0.594,-0.4741,0.39,-0.5196,15.749181,-85.936966,177.29912,152.4601,0.0532,-0.913,0.3823,0.094,1.569,0.123,20.699,-5.087,20.849,30
0.5058,-0.4515,-0.4022,0.6151,24.825396,-94.83411,193.36179,214.46408,-0.2148,-1.0102,0.3525,-0.764,0.184,-0.477,27.449,-23.537,-14.087,46
0.5625,-0.305,0.515,-0.5702,12.9198,-75.18862,200.4599,148.56836,-0.1479,-0.9545,0.2036,-0.31,-0.787,0.143,-26.7,-9.587,18.449,47
0.4762,-0.3323,0.5124,-0.6325,9.549746,-87.19635,186.17769,150.04085,-0.0117,-0.8505,0.2802,-0.074,0.475,-0.058,28.936,-13.187,4.799,42
0.8078,-0.5759,0.0798,-0.096,9.404809,-71.26871,181.58884,174.51001,-0.0664,-0.8974,0.3007,0.137,0.526,-0.038,3.749,24.763,4.349,50
0.0331,-0.0567,-0.6032,0.7948,5.873839,-105.644646,184.54272,177.52184,-0.1298,-1.2666,0.2871,0.47,1.314,-0.455,22.349,-15.587,21.299,7
0.3643,-0.2436,-0.593,0.6754,53.19425,-89.34243,170.00343,203.69171,-0.1083,-1.2353,0.0849,-1.056,-0.646,0.73,-6.6,-23.987,5.699,40
0.4764,-0.0944,0.7854,-0.3836,19.405352,-44.291252,264.18686,165.33177,-0.3857,-0.8779,-0.2856,-0.846,0.241,0.598,-29.976,23.73,4.936,13
0.4746,-0.533,0.4354,-0.5485,2.6741707,-99.57364,161.49379,172.20813,0.3974,-1.1064,0.104,0.073,-0.169,-0.356,-1.05,-5.237,28.199,2
0.6153,-0.4476,0.4093,-0.5033,3.0659502,-81.31046,184.81458,153.92114,-0.0527,-0.9848,0.414,-0.198,0.456,-0.664,-19.783,2.759,-11.342,4
0.7641,-0.6135,0.1243,-0.1554,26.328815,-78.1807,179.9321,171.89041,-0.2114,-1.2636,0.102,-0.396,-1.283,1.966,-24.737,-28.637,14.249,37
0.1452,-0.0775,-0.6014,0.7817,12.867966,-102.17809,175.15527,199.82648,-0.0673,-0.7695,0.2685,-0.317,0.479,-0.482,18.149,29.099,-31.637,7
0.3182,-0.1702,0.6109,-0.7045,0.2262929,-89.42329,194.20963,151.56767,-0.1533,-0.9916,0.2207,0.013,0.03,-0.021,9.142,-20.232,24.417,45
0.6703,-0.5324,0.3243,-0.4023,3.3512373,-81.769684,180.59883,160.1532,0.1,-0.9379,0.1733,0.01,0.061,0.204,-6.3,17.414,-24.437,21
0.0157,-0.0684,0.5489,-0.8328,12.035659,-113.129745,172.02786,189.27878,0.3349,-1.0361,0.3886,0.153,0.594,-0.223,-10.937,-7.787,31.649,49
0.7244,-0.6678,0.1517,-0.0787,8.54341,-84.10015,192.32663,189.24626,-0.0302,-0.9858,0.165,0.139,0.365,-0.373,10.199,18.763,-23.087,19
0.6141,-0.4586,0.3917,-0.5089,1.7325089,-82.6553,181.29005,151.87773,0.3266,-0.7871,0.2978,0.453,0.28,1.362,-1.975,-26.433,-15.497,4
0.3282,-0.1451,0.6367,-0.6824,1.7735626,-84.61325,201.70982,151.23431,-0.2539,-0.9501,0.1923,-0.111,-0.083,-0.069,-24.887,-2.837,14.999,33
0.4837,-0.2607,-0.56,0.6199,8.15398,-79.524254,159.9548,211.38834,0.4726,-0.832,0.1894,0.324,0.103,0.692,19.949,-5.387,-28.337,36
0.7992,-0.5916,0.1015,-0.0279,2.3937593,-72.379654,191.53883,186.6576,0.0434,-1.083,0.2211,0.418,0.13,1.783,20.249,-26.837,26.249,50
0.332,-0.1052,0.6448,-0.6802,0.6254379,-81.53497,207.93927,146.56232,-0.291,-0.9643,0.1523,0.001,0.009,-0.007,14.898,-30.745,-25.318,35
0.3921,-0.2872,0.6849,-0.5426,15.296306,-75.71023,208.23494,177.04765,-0.4213,-1.2114,-0.2265,-0.144,-0.889,0.222,-14.937,-13.147,-7.131,34
0.6427,-0.5296,0.3333,-0.4418,7.3066216,-84.69009,176.2776,156.83437,0.0761,-0.9287,0.1787,-0.05,-0.457,0.257,-11.1,13.213,-23.687,21
0.2348,-0.0451,-0.5716,0.7848,21.955172,-96.0008,163.24573,225.08228,-0.1611,-0.8833,0.3515,-0.24,0.449,-0.027,25.199,32.549,12.613,49
0.2535,0.0367,0.6711,-0.6956,44.17564,-79.25655,219.28812,137.33908,-1.0083,-0.9819,-0.3032,2.711,3.866,-0.363,22.21,18.78,3.136,13
0.6639,-0.58,0.2878,-0.3739,0.23737021,-85.8333,174.91261,162.34618,0.0249,-0.9882,0.1425,0.009,-0.005,-0.037,11.399,-2.237,18.149,27
0.0252,0.0829,0.5776,-0.8116,12.675581,-107.66331,194.15092,156.89137,-0.0068,-0.937,0.207,0.437,-0.16,0.354,26.399,-28.937,26.849,7
0.3839,-0.414,0.4138,-0.714,11.657417,-107.2364,156.49239,144.23802,0.3105,-1.1782,0.0957,0.598,-0.85,0.317,11.549,-19.937,-5.087,43
0.432,-0.3847,0.3958,-0.7131,8.625041,-99.89532,163.08784,131.1791,0.3452,-1.2021,0.5097,-0.235,0.303,-0.635,29.849,29.849,3.164,43
0.5498,-0.5542,-0.3689,0.5042,14.366981,-95.67346,195.67593,198.84924,0.3652,-1.2104,0.374,-0.065,1.637,-1.245,-2.228,28.65,-10.264,23
0.69,-0.3526,0.6091,-0.1687,17.037682,-44.1729,251.13483,193.24706,-0.7998,-0.8779,-0.0361,-0.012,0.332,0.445,-13.2,-22.937,24.299,48
0.5803,-0.4388,0.4371,-0.5287,5.633482,-83.92291,184.02504,155.41551,-0.0541,-0.9204,0.3012,0.002,-0.54,0.069,-9,-22.187,-6.9,47
0.3256,-0.2224,0.6052,-0.6914,6.613324,-91.175575,188.47725,158.2992,-0.1875,-0.9506,0.1752,0.089,0.038,-0.353,-10.637,1.963,-16.05,38
0.7264,-0.6583,0.0864,0.1768,8.111219,-78.52776,215.5443,218.2004,-0.5458,-1.3129,0.0478,-0.244,-0.051,-0.273,21.655,-23.183,22.433,26
0.5117,-0.4062,-0.5851,0.4803,11.206487,-77.9516,156.08719,181.53654,-0.0434,-0.5566,0.0058,0.025,1.018,-1.314,-6.585,-32.419,10.119,16
0.4238,-0.1289,0.7566,-0.4808,9.999267,-57.69881,244.39862,163.9188,-0.2944,-0.7045,-0.208,-1.048,-0.797,0.956,31.66,27.78,-7.213,13
0.5103,-0.4583,-0.4809,0.546,24.994757,-90.1543,180.99063,193.50787,-0.2739,-1.1445,-0.0639,0.716,-2.052,0.42,20.399,26.849,13.363,46
0.6569,-0.5916,0.2397,-0.4011,11.598793,-87.78419,164.65009,152.05269,0.0917,-0.85,0.1318,-0.317,-0.839,-0.712,-26.304,30.425,-0.54,5
0.5284,-0.423,0.445,-0.5862,16.14257,-89.051414,177.64081,151.4297,-0.1088,-1.1518,0.1557,-0.459,-1.11,0.172,9.016,22.095,-7.742,4
0.3071,-0.0567,0.6813,-0.6619,11.144736,-77.627495,215.74734,147.14899,-0.4106,-0.9238,0.0703,0.201,0.373,-0.46,-21.876,-0.276,-12.974,11
0.2433,-0.0269,0.6576,-0.7124,21.456532,-85.29951,207.9113,144.86726,-0.2246,-0.497,0.1181,0.478,1.806,-0.915,17.41,-31.776,17.326,11
0.103,-0.3261,-0.6108,0.714,62.814384,-98.63824,216.16586,143.7374,-0.8344,-1.1196,-0.1748,-0.072,0.503,-0.797,-26.537,-23.537,-19.787,29
0.2137,-0.1542,-0.5972,0.7575,4.6096067,-99.85021,177.99959,199.68228,-0.081,-0.7958,0.1948,1.347,1.068,0.354,0.7,-26.786,-20.876,18
0.0232,0.2186,0.5945,-0.7733,50.53434,-99.6867,213.97311,134.64684,-0.413,-0.9946,0.2597,0.042,0.549,-0.387,-9.287,1.213,23.849,29
0.4576,-0.3394,0.6405,-0.5147,4.4999194,-76.07492,208.03273,176.64609,-0.0434,-1.1801,0.2436,0.028,-0.275,-0.828,22.712,-15.247,-22.131,34
0.034,-0.1007,0.6634,-0.7405,12.518821,-96.28072,169.18552,190.77849,-0.0004,-0.6889,0.1284,0.627,3.286,-0.589,5.399,-27.437,-28.937,10
0.5144,-0.5728,0.3051,-0.5604,24.39794,-102.26585,148.34305,144.78793,0.4926,-1.4423,0.0659,-0.195,-4.052,2.349,15.899,-11.987,-31.937,31
0.7592,-0.5878,-0.046,0.2753,8.455359,-74.23254,202.0217,214.92223,-0.143,-0.9887,0.3398,-0.377,0.059,-0.39,-24.266,-18.716,-1.451,15
0.4706,-0.4912,0.496,-0.5394,6.270654,-93.68795,172.95656,177.49854,0.4155,-0.8491,0.1557,0.276,-0.858,-0.633,12.449,-7.937,32.549,2
0.0276,0.0091,-0.5852,0.8103,3.2780113,-107.99984,175.90073,189.22478,0.458,-0.9951,0.2954,0.708,0.177,1.204,15.899,7.963,1.813,49
0.3608,-0.3577,-0.6163,0.6016,11.568313,-88.843796,178.33078,179.2376,0.103,-1.1552,0.0117,-0.297,-0.982,0.779,-16.343,-7.548,-16.74,12
0.4318,-0.0817,0.6114,-0.658,13.609395,-71.5541,217.49681,134.63297,-0.1953,-1.0327,0.1743,-0.129,-1.851,1.08,11.387,22.962,-19.763,35
0.6741,-0.4379,0.5416,-0.2457,8.037526,-59.377872,233.14984,190.9303,-0.6752,-0.9077,0.0371,-0.163,-0.08,0.079,32.699,-21.437,0,48
0.7869,-0.6045,0.1209,-0.0231,14.939764,-73.89206,194.92387,189.90201,0.0366,-0.6093,0.2763,0.209,-0.621,1.848,25.949,-22.487,2.549,37
0.093,-0.0422,-0.5845,0.8048,7.1687264,-106.5518,176.44025,196.30482,0.2353,-1.0678,0.4282,-0.719,0.169,-1.304,-31.337,-30.137,12.463,49
0.6529,-0.5393,0.304,-0.4362,5.425168,-84.61148,173.17567,153.76987,0.0595,-0.9804,0.2558,0.058,0.016,-0.049,20.549,-3.737,17.699,21
0.444,-0.3771,0.3983,-0.7083,7.175408,-97.84165,165.28172,130.42831,-0.0336,-0.748,0.1655,0.152,-0.243,0.445,-32.537,-22.037,-21.587,43
0.7544,-0.605,-0.1242,0.2219,12.425197,-78.55416,187.50435,197.93832,-0.0043,-0.9184,0.2314,-0.023,0.613,-0.23,-21.116,0.934,-10.451,15
0.6259,-0.6948,0.2514,-0.2492,10.54922,-95.07016,176.0141,184.70703,0.1674,-0.9082,-0.0034,0.06,-0.925,-0.09,-31.989,-16.919,-2.785,20
0.667,-0.5408,0.2385,-0.4533,36.688465,-82.8963,164.9234,141.87823,0.2075,-0.9389,0.4248,-0.226,0.059,0.221,16.499,-15.137,32.549,39
0.3817,-0.3143,-0.6355,0.5929,14.676987,-84.15584,167.09778,185.53645,-0.0917,-1.1005,0.0312,0.188,-0.603,-1.326,-11.559,-28.287,-4.997,12
0.2558,-0.3132,-0.6282,0.6645,4.1393523,-94.38687,190.6886,173.339,0.0791,-0.851,-0.0556,0.389,-0.508,1.642,17.99,-15.537,31.589,12
0.5009,-0.4106,0.4695,-0.5999,8.649701,-90.45329,177.909,154.25453,-0.0991,-1.3291,0.1489,0.646,-1.504,1.726,-31.65,-32.687,18.749,47
0.8027,-0.5835,0.1219,-0.0151,4.5926642,-70.78656,195.73001,190.23053,0.0048,-1.0361,0.1767,0.348,-0.365,1.524,-19.5,-4.187,-32.237,50
0.3732,-0.3588,-0.4789,0.7088,9.750342,-102.47097,193.43741,208.23013,-0.0737,-0.7294,0.0927,0.699,-0.597,0.7,4.87,28.173,-10.949,22
0.7275,-0.5287,0.3408,-0.2737,24.319014,-73.0148,199.3916,176.6389,-0.0366,-1.1362,0.225,-0.107,1.005,-0.692,10.049,-20.687,19.049,3
0.0046,-0.2847,-0.6253,0.7265,52.806393,-93.54153,222.25443,131.85649,-0.3139,-0.6162,-0.122,1.705,0.684,-0.125,-21.137,-1.487,-29.237,29
0.4001,-0.3908,0.3997,-0.7261,11.893848,-104.32121,159.57175,134.44218,0.5957,-0.9042,0.4916,-0.127,0.234,-0.135,22.499,28.349,11.263,43
0.0128,-0.2451,-0.6578,0.712,17.392498,-91.56139,216.27,141.27599,-0.0395,-1.0024,-0.1127,-0.23,-1.125,2.053,-27.887,1.363,7.649,40
0.3875,-0.0604,0.6768,-0.6229,0.6530209,-69.5865,225.31287,143.51088,-0.4462,-0.915,0.0903,0.024,0.034,-0.017,-18.876,-0.726,-14.774,11
0.4897,-0.3012,-0.4833,0.6601,5.2019763,-85.392654,173.58623,221.1464,0.2817,-0.7558,0.1938,0.419,-0.06,0.339,14.849,-21.437,-20.387,36
0.7632,-0.6336,-0.1261,0.006,13.681649,-77.53277,161.96596,165.65176,0.0996,-1.3881,0.246,0.018,-0.054,0.713,-9.15,25.199,-16.937,6
0.7173,-0.6572,0.1419,-0.1824,18.754503,-85.712105,176.21747,171.95903,-0.1215,-0.9165,0.0922,0.014,0.085,-0.461,-32.237,4.813,27.299,19
0.779,-0.5876,-0.0771,0.2044,14.710173,-74.446686,190.5779,201.06337,-0.2729,-0.8134,0.3647,-0.385,-0.089,-0.65,12.17,-10.916,27.349,15
0.443,-0.3566,0.6437,-0.5119,4.9486566,-77.20508,205.24178,180.52017,-0.2915,-0.9848,-0.1123,-0.01,0.082,-0.023,-7.437,-2.947,-6.981,34
0.1851,-0.2305,-0.5864,0.7541,5.988119,-104.09825,192.35837,181.33904,-0.1967,-1.1459,0.2348,0.148,0.217,-0.014,-21.887,-2.237,-16.2,41
0.0835,0.0485,-0.5801,0.8087,7.185319,-105.047455,164.89056,211.12498,0.1723,-0.8364,0.375,0.239,-0.082,-0.28,-15.137,-1.037,31.499,49
0.2174,-0.1613,-0.6144,0.741,4.6676383,-97.601006,177.30121,196.60695,-0.2617,-0.9062,0.2553,-0.365,-0.034,-0.377,-4.307,-16.749,-26.307,18
0.8153,-0.5545,0.1655,-0.0188,9.468342,-66.34706,201.20724,192.60541,-0.2622,-1.1005,0.3471,-0.073,0.038,-1.838,22.049,-17.687,9.299,50
0.6613,-0.5083,0.3415,-0.433,8.331109,-81.14011,181.0527,156.98846,0.0058,-1.2373,0.2368,-0.085,0.647,-0.574,-10.35,8.263,-21.887,21
0.6853,-0.5129,0.3854,-0.3443,7.8771567,-76.033516,196.92743,172.91353,0.0742,-0.894,0.1088,0.145,-0.123,0.838,-28.337,-7.037,21.149,32
0.6723,-0.441,0.5386,-0.2515,8.537429,-60.194187,231.98026,190.53856,-0.6503,-0.8212,0.0493,0.073,0.091,0.058,32.699,-21.437,0,48
0.6384,-0.5639,0.3404,-0.3981,14.294043,-86.45989,178.54709,166.44736,-0.1401,-0.9477,0.2602,-0.018,0.145,-0.574,9.415,28.923,-25.974,44
0.2868,-0.3232,-0.6414,0.6338,2.8718307,-90.56577,184.94342,174.07973,-0.0844,-0.9877,-0.0922,0.114,0.234,-0.396,24.74,-11.037,26.339,12
0.8153,-0.508,-0.0108,0.2775,23.851498,-61.54845,200.20662,216.73785,-0.1928,-0.8725,0.4428,0.194,-0.048,0.103,-20.1,21.749,-12.137,6
0.6825,-0.5861,0.2618,-0.3494,9.030345,-84.50172,174.91495,161.9179,0.0253,-0.7753,0.0366,0.461,0.342,0.881,17.999,-30.437,-22.337,9
0.6401,-0.3201,0.618,-0.325,26.025225,-54.269203,238.99605,178.52208,-0.726,-0.8281,0.0488,-0.354,-0.431,0.069,-22.35,16.949,27.899,48
0.5435,-0.4518,0.4592,-0.5379,13.152736,-87.634575,181.28397,160.96396,-0.0957,-0.9243,0.0263,0.232,-2.041,1.127,24.899,-7.187,19.949,28
0.6408,-0.6136,0.2681,-0.3751,10.161304,-90.621864,167.91441,162.13045,0.2431,-0.8842,0.2177,0.099,-0.995,-2.614,28.199,-5.687,23.249,31
0.3854,-0.3302,0.628,-0.5898,16.423716,-84.98004,190.88142,175.79253,-0.1362,-0.541,-0.0512,0.659,1.383,-0.759,20.312,-14.647,-18.381,34
0.656,-0.5452,0.3024,-0.4253,4.0791106,-84.62961,173.72581,155.32422,0.0629,-0.979,0.2353,0.011,0.087,-0.116,19.649,-3.887,17.249,21
0.3315,-0.1067,0.645,-0.6801,0.76410306,-81.644325,207.72247,146.83023,-0.2915,-0.9619,0.1425,0.004,0.014,-0.011,14.748,-30.295,-24.718,35
0.6742,-0.4892,0.424,-0.3551,15.798871,-74.20433,201.86316,174.22626,0.0058,-0.913,0.185,0.582,-0.513,-0.286,-19.384,-18.913,-0.324,44
0.4729,-0.3934,-0.5792,0.5347,6.13121,-83.067345,165.78087,185.12093,0.4799,-0.9008,0.247,-0.382,-0.688,-0.473,-9.435,-29.869,5.019,16
0.2544,-0.1191,0.6449,-0.7106,7.8440657,-89.629745,195.8753,155.58716,-0.2744,-1.6201,-0.0263,-0.403,-2.426,2.399,27.414,9.47,11.085,35
0.2733,-0.1371,0.6237,-0.7193,6.4869523,-91.10482,193.83643,153.05792,-0.0922,-1.0361,0.1533,-0.005,-0.395,-0.039,-10.629,9.244,-29.113,45
0.1111,0.1815,0.7018,-0.6797,31.375946,-80.03544,225.99838,136.21243,-0.4145,-0.9008,-0.1386,-0.596,0.142,-0.523,15.616,-9.149,-10.764,29
0.7245,-0.6415,0.095,0.2331,12.3166485,-74.57504,221.311,226.57808,-0.2978,-0.7661,-0.0551,0.265,-0.202,0.732,25.189,31.208,-30.715,26
0.8125,-0.5449,0.1998,0.0541,16.433395,-62.160534,212.26817,204.62906,-0.2534,-0.8344,0.2041,0.079,0.081,0.361,1.799,10.664,22.949,50
0.6786,-0.5864,0.3396,-0.283,1.082715,-81.25248,193.60841,181.41238,-0.1635,-0.9858,0.0825,-0.001,-0.155,-0.046,12.415,29.223,-24.474,44
0.7201,-0.4667,0.2621,-0.4412,46.216694,-72.249,177.24182,143.19348,0.0727,-0.7734,0.3603,-0.663,0.409,-0.959,32.549,-17.687,21.599,39
0.6978,-0.6716,0.2004,-0.1473,13.171386,-86.66414,189.19768,186.90573,0.3886,-0.8198,0.0585,0.205,-1.166,0.904,-24.75,-2.387,3.164,17
0.1686,-0.0988,0.5994,-0.7761,20.766237,-101.4176,184.427,159.06499,-0.1933,-0.7905,0.2636,0.242,-0.07,-0.217,31.744,9.746,7.354,45
0.4422,-0.1137,0.5671,-0.6854,15.185048,-75.24646,209.12584,130.46376,-0.0366,-0.9511,0.3417,0.541,0.631,-1.786,3.671,15.49,-22.154,35
0.3011,-0.1736,0.6308,-0.6937,6.015148,-88.98964,193.8597,157.00777,-0.3095,-0.9438,0.0668,0.031,-0.081,-0.231,-28.037,-3.737,16.199,33
0.7826,-0.6079,0.1265,-0.0422,16.25653,-74.73266,193.61865,187.98677,-0.0214,-0.9453,0.1635,0.395,-1.443,2.053,-24.737,-28.637,14.249,37
0.1549,-0.3812,-0.5687,0.7121,72.509254,-103.87208,218.09549,145.91884,-0.6914,-1.0043,-0.1962,0.296,0.666,-0.087,-7.232,28.988,-17.091,29
0.7405,-0.595,-0.1285,0.2844,5.7355833,-78.83111,193.42639,206.71817,-0.1821,-0.9765,0.1733,-0.038,-0.059,-0.156,-23.366,-0.866,-12.251,15
0.6758,-0.3801,0.4878,-0.4009,10.808661,-65.75914,212.03926,165.96382,-0.2446,-1.1005,-0.0288,-0.093,-0.16,0.612,-30.587,-25.487,-31.787,30
0.6724,-0.337,0.6072,-0.2557,19.383984,-49.862953,243.79877,184.56187,-0.5234,-0.832,0.1103,-0.441,-0.495,-0.123,29.849,10.063,0.449,48
0.5927,-0.46,0.3983,-0.5276,4.7516093,-85.08098,178.7946,151.50354,0.0439,-0.9702,0.372,-0.156,-0.53,-0.179,-26.683,1.109,-7.142,4
0.3169,-0.3899,-0.5847,0.6368,8.891094,-96.439705,194.19525,173.22707,-0.0664,-0.5664,0.0761,-1.039,-1.489,-2.093,16.64,8.899,-20.597,12
0.5257,-0.4338,-0.4732,0.558,25.721773,-88.18093,178.69356,199.96751,-0.1337,-0.6845,0.249,0.407,-0.443,-1.257,-28.787,28.199,3.463,46
0.6624,-0.4047,0.5762,-0.2554,13.338503,-56.4602,237.81567,189.49472,-0.7309,-0.8764,0.0302,0.395,1.06,0.068,21.749,25.799,8.099,48
0.5331,-0.5806,-0.3384,0.5138,16.948936,-99.92368,204.278,201.9807,-0.0444,-0.873,0.1499,-0.431,0.503,-0.839,-14.678,-5.686,-2.614,23
0.0775,-0.0815,0.6942,-0.7109,22.9808,-91.38059,179.0728,180.34819,0.2749,-1.6284,0.1152,0.712,-1.322,-0.451,-11.1,29.099,-5.087,10
0.2843,-0.1605,0.6233,-0.7105,3.541157,-90.97098,192.31265,155.4874,-0.0834,-1.2246,0.1801,-0.201,-0.869,-0.182,11.842,-22.782,29.367,45
0.6334,-0.4488,0.4103,-0.4783,3.3651154,-79.10727,188.21202,156.43294,0.0258,-1.0151,0.1977,-0.159,-0.217,-0.221,-19.783,1.709,-9.542,4
0.6209,-0.4541,0.3838,-0.5106,2.4657507,-81.81181,181.14156,150.00412,-0.0532,-0.9262,0.353,0.372,1.398,-0.172,-7.283,-27.384,-26.038,4
0.2954,-0.3212,-0.6434,0.6288,4.161551,-89.747215,182.82716,175.22166,-0.0771,-1.0283,-0.0683,-0.154,0.343,-0.543,24.74,-11.037,26.339,12
0.5092,-0.3339,-0.4693,0.6394,8.815764,-85.516365,175.63332,218.80319,0.2045,-0.7646,0.2163,0.124,0.295,-0.05,-3.6,28.199,5.563,36
0.4642,-0.2874,-0.511,0.6638,2.2941227,-86.415,171.90437,217.38995,0.0864,-0.958,0.3037,0.029,0.415,-0.342,-15,-9.437,1.213,36
0.6822,-0.4942,0.415,-0.3435,7.8688803,-73.85192,201.99165,174.74826,-0.1586,-0.8188,0.1,0.068,0.342,-0.047,-21.887,-13.337,19.199,32
0.1502,0.0278,-0.586,0.7957,11.755156,-99.62413,160.93007,220.7194,0.0517,-1.1186,0.5009,-0.154,-0.118,0.133,-16.487,-1.937,-32.387,49
0.558,-0.4358,0.4124,-0.5731,12.199599,-87.444855,176.48392,147.55714,-0.0649,-0.7646,0.3408,0.233,1.115,-0.485,-16.823,14.539,-5.708,4
0.3463,-0.1118,0.6404,-0.6762,8.871475,-80.79007,208.4233,145.8966,-0.1386,-0.8579,0.2011,-0.218,0.457,0.442,12.557,23.546,-20.395,45
0.4825,-0.3962,0.3816,-0.6815,3.1797295,-94.37249,165.95515,129.70898,0.2495,-1.041,0.4272,-0.291,0.107,0.117,31.349,-25.337,-17.087,43
0.1837,-0.4504,-0.5305,0.6941,20.952606,-106.90111,225.30971,141.05771,-0.3159,-1.27,-0.2592,0.509,-0.201,-0.719,28.64,14.149,-23.297,12
0.2491,-0.2661,-0.5879,0.722,15.230948,-100.472824,188.95486,186.57297,-0.1372,-0.83,0.122,0.217,1.328,-1.476,31.199,-10.487,5.099,41
0.4171,-0.3716,0.5024,-0.6598,13.699865,-96.33372,173.30663,156.54535,-0.2402,-0.9687,0.1826,0.209,0.329,-0.598,-5.25,-21.437,-2.55,42
0.2862,-0.1732,0.6459,-0.6861,13.667962,-88.45411,193.62561,160.78305,0.0092,-0.7451,0.1079,0.025,0.283,0.398,4.049,-17.537,22.949,38
0.3764,-0.5212,0.4292,-0.6343,16.888548,-110.288605,145.47586,174.71126,0.2285,-1.2363,0.0942,-0.236,0.631,-0.431,-16.8,-29.387,-19.487,2
0.6523,-0.563,0.3521,-0.3652,10.289521,-83.97457,184.93176,171.67528,-0.2172,-0.9379,0.1333,0.184,0.388,-0.627,9.415,28.923,-25.974,44
0.7251,-0.6344,0.1022,0.2472,14.24757,-72.847664,222.958,228.94925,-0.3022,-0.8344,-0.0429,0.237,-0.182,0.557,25.189,31.208,-30.715,26
0.8053,-0.587,0.066,-0.0498,4.7515755,-72.19086,184.20818,179.76096,-0.0288,-0.9599,0.2705,0.255,-0.465,-0.502,12.599,28.963,2.999,50
0.2829,-0.4746,0.4836,-0.6788,20.755606,-111.296326,142.16394,193.61928,0.3398,-1.0087,0.1816,-0.264,2.716,-1.336,-11.4,18.599,-11.837,1
0.6899,-0.5463,0.3123,-0.3575,12.370635,-80.36069,183.8236,164.89632,-0.1831,-0.9189,0.2729,-0.111,0.112,-0.047,13.649,-29.837,30.599,8
0.6925,-0.5574,0.3145,-0.3327,9.368596,-80.351616,186.2731,169.11926,-0.1645,-0.8378,0.1308,0.188,0.189,0.22,0.599,21.299,-15.437,8
0.5938,-0.6361,0.1286,-0.4755,25.518637,-92.503395,137.31792,122.9701,0.1162,-0.8315,0.1791,-0.235,-0.036,-1.148,-0.6,-12.437,30.749,9
0.6171,-0.4908,0.3884,-0.4767,10.175764,-84.03664,181.07742,157.95862,-0.2065,-0.9028,0.2431,0.001,0.462,-0.679,-25.337,-2.387,19.049,32
0.7087,-0.5299,0.2311,-0.4041,39.325848,-77.974754,171.3471,147.12689,0.2133,-1.2055,0.3842,0.125,0.354,-0.439,18.449,-8.837,27.299,39
0.2874,-0.2051,0.62,-0.7006,10.842177,-92.42656,186.8849,161.94612,-0.0419,-0.9277,-0.1318,0.212,-0.634,0.768,-13.487,-9.587,-4.05,38
0.5281,-0.3476,0.468,-0.6173,11.775995,-84.07715,185.65204,143.68027,-0.0068,-0.9047,0.3354,-0.137,0.34,-1.263,5.549,20.999,2.549,47
0.6844,-0.5201,0.327,-0.3924,4.6275263,-79.36202,183.62804,160.57242,0.1303,-1.0502,0.4482,-0.225,0.32,-0.312,14.099,-8.087,26.999,21
0.1982,-0.3775,-0.5766,0.6968,12.879124,-102.84288,211.65106,155.84001,-0.246,-1.142,0.1499,0.207,-1.149,-0.807,-25.046,-30.987,17.939,12
0.6498,-0.6892,0.1894,-0.2582,4.9615006,-94.445625,167.19084,170.70432,0.3491,-1.4208,-0.0546,-0.168,1.134,-0.235,-14.289,9.167,11.914,20
0.4876,-0.4169,-0.4704,0.6058,19.19455,-92.225494,184.39223,204.40776,0.0756,-1.0156,0.2915,-0.684,-0.041,-1.213,-5.987,-4.487,-30.437,46
0.1592,-0.0694,-0.6405,0.7479,13.003381,-95.91472,170.21227,199.44066,-0.1269,-0.996,0.2197,-0.42,-0.431,0.071,17.549,-7.487,29.399,7
0.2387,-0.0372,0.6326,-0.7357,20.519318,-89.10005,203.35327,143.19958,-0.6406,-0.7783,0.0126,0.601,3.117,-0.101,-4.65,-12.887,-13.637,33
0.6386,-0.5292,0.2827,-0.4817,37.559532,-85.52433,166.73799,144.09865,-0.0395,-0.9877,0.2783,0.536,-1.463,0.834,9.299,-24.587,-16.037,39
0.6659,-0.4427,0.4702,-0.3732,23.499119,-70.47445,208.48213,173.04929,-0.0092,-1.0585,0.3139,-0.698,-0.293,-0.131,-22.234,-5.126,15.725,44
0.596,-0.6774,0.114,-0.4156,4.4656467,-96.058914,135.94737,130.31381,0.7177,-0.8666,-0.082,1.559,-1.161,0.806,-14.018,10.625,-13.427,5
0.2508,-0.0974,0.6183,-0.7383,12.012156,-92.24984,195.57692,148.64667,-0.2207,-0.8842,0.2705,-0.034,-0.257,-0.319,-23.687,-11.687,19.499,33
0.3364,-0.1893,0.6105,-0.6914,8.202096,-88.373695,194.36267,152.91728,-0.0649,-0.7089,0.0805,-0.003,0.241,0.498,-13.487,-9.587,-4.05,38
0.0526,-0.0471,-0.6244,0.7778,3.5433557,-102.35163,180.71478,183.35617,0.0249,-0.9814,0.1616,0.064,0.246,0.001,-12.45,-32.387,-12.887,7
0.3998,-0.5574,0.4201,-0.5939,10.682733,-109.09348,144.70026,178.88333,0.4946,-0.7924,0.0585,1.211,1.391,2.525,-3.75,-26.087,-18.137,1
0.2781,-0.0798,0.6291,-0.7213,11.723419,-87.5878,202.22693,144.7311,-0.3935,-1.4067,0.1611,0.256,0.693,-1.207,-25.842,9.896,6.754,45
0.5142,-0.4029,-0.5911,0.4729,11.197074,-76.8222,153.83505,180.93549,0.27,-1.2109,0.0214,-0.152,0.459,0.471,4.801,26.067,-32.317,16
0.3149,-0.1,0.5671,-0.7544,13.078016,-90.165634,197.54713,133.48254,-0.3295,-0.8979,0.291,0.33,0.987,-1.646,-0.228,15.34,-20.654,35
0.3678,-0.5329,0.4451,-0.6183,15.990175,-109.41587,144.47826,183.36162,0.1699,-0.9335,0.1191,-0.143,-0.217,-0.119,-5.85,-12.137,-31.487,2
0.686,-0.489,0.272,-0.4648,43.72891,-77.50702,173.21637,142.3143,0.2065,-0.9555,0.2983,0.858,0.236,0.486,-12.45,-21.737,18.013,39
0.5106,-0.4452,0.5525,-0.4855,11.651832,-82.409966,195.13762,179.6106,-0.1723,-1.4223,-0.0776,0.373,1.765,-0.647,21.962,-17.497,28.405,34
0.4174,-0.4374,0.383,-0.6982,9.097623,-105.205734,155.1929,137.7767,0.4873,-0.7304,0.3281,-0.132,0.129,-0.453,-30.587,-10.637,-29.687,43
0.4781,-0.3319,0.5496,-0.5991,4.6406364,-84.124344,192.41917,157.8187,-0.1577,-0.9667,0.1318,-0.191,0.111,-0.076,-20.25,0.914,2.099,42
0.5141,-0.4061,-0.5826,0.4808,11.1471405,-77.992065,156.23312,182.009,0.2104,-1.0273,0.0366,-0.111,0.389,0.132,19.051,-17.119,23.619,16
0.3087,-0.1572,0.6311,-0.6939,5.9287777,-87.65203,196.91005,153.76968,0.0913,-1.436,0.1689,0.51,-0.54,3.182,-16.878,18.34,-3.854,35
0.6402,-0.6737,0.1789,-0.3227,7.8951273,-94.7396,157.3645,157.9554,0.3442,-1.4228,-0.0766,-0.05,-0.116,2.905,15.149,-14.237,-18.887,17
0.2641,-0.2909,0.561,-0.7285,5.5300384,-103.08953,167.8774,171.31302,0.2314,-0.9257,0.0112,0.294,-0.483,0.78,17.099,-32.537,-24.737,25
0.33,-0.1087,0.6447,-0.6807,1.0223112,-81.92397,207.25986,147.16539,-0.2949,-0.9541,0.1367,-0.01,-0.014,-0.027,15.198,-31.045,-23.668,35
0.0697,0.1161,0.6821,-0.7185,0.8019631,-89.34155,208.21423,149.25006,-0.2783,-0.9755,0.0336,-0.006,0.099,-0.065,-9.887,3.914,-12.3,40
0.6191,-0.6813,0.1166,-0.3725,4.1802225,-95.21511,141.63852,138.29546,0.3715,-0.9335,-0.0449,-0.002,0.021,-0.062,-29.654,-27.617,-1.496,5
0.1414,-0.1654,0.6034,-0.7671,15.55823,-103.37654,172.18527,177.41507,0.1459,-0.9804,0.4179,-0.517,-0.323,0.369,-14.85,11.713,-29.837,25
0.7299,-0.6315,0.1319,0.2255,14.849681,-71.09731,224.48624,228.51076,-0.3144,-0.8554,-0.0317,0.122,0.014,0.31,-7.21,12.158,-12.265,26
0.7145,-0.6186,0.2807,-0.1669,11.399048,-79.114044,200.49245,190.5466,-0.2416,-1.0463,0.2539,0.479,2.09,-0.434,10.349,-8.837,18.299,3
0.1514,-0.0297,-0.579,0.8005,13.992054,-102.89456,169.004,212.38332,0.1083,-0.7026,0.4252,-0.08,1.299,-1.557,-31.337,-30.137,12.463,49
0.2561,-0.4059,-0.5666,0.6697,10.678636,-102.06195,207.69531,162.79955,-0.018,-0.728,0.0961,-0.006,-2.054,-1.682,21.606,2.202,-26.34,12
0.6526,-0.5533,0.3085,-0.4155,6.4180255,-85.352234,174.53442,158.1741,-0.0317,-0.9194,0.25,-0.069,-0.09,-0.058,-21.15,-31.787,-1.487,27
0.7312,-0.6608,0.1114,0.1273,11.541012,-78.708374,213.45914,213.89285,-0.2861,-0.9897,0.0703,-0.102,-0.062,-0.045,7.639,14.872,24.021,26
0.6819,-0.6403,0.2552,-0.2443,11.317477,-86.53151,183.84155,179.31183,-0.0048,-1.2294,0.0737,0.085,-1.43,2.738,-9.3,14.999,-9.137,17
0.6769,-0.4334,0.5484,-0.2304,7.068466,-57.609154,235.91354,192.29134,-0.4423,-0.7651,0.1997,0.428,-0.192,-0.158,29.699,-30.737,2.549,48
0.6166,-0.4444,0.4886,-0.4282,0.14586942,-75.80393,202.28113,171.33427,-0.2534,-0.9882,0.1845,0.044,0.116,-0.006,-26.537,1.664,15.149,30
0.455,-0.586,-0.2663,0.6152,25.783117,-109.48685,224.4678,228.04025,-0.2675,-1.0043,0.2817,-0.149,1.059,-0.643,-24.578,-30.436,5.785,23
0.2646,-0.2038,-0.5773,0.745,12.12315,-99.32144,179.83086,202.29608,0.0483,-0.7988,0.2768,-0.415,-0.037,0.167,-32.62,-11.096,4.561,18
0.7287,-0.579,-0.2589,0.2578,48.16077,-78.39272,172.45525,187.26312,-0.1855,-1.1499,-0.0009,-0.339,0.675,0.099,29.258,0.75,11.185,23
0.3286,-0.1189,0.6422,-0.6821,2.2620597,-82.82163,205.5408,148.29352,-0.2939,-0.9897,0.1293,0.032,-0.038,-0.056,12.048,-30.745,-24.568,35
0.2231,-0.0682,-0.5789,0.7812,21.317776,-97.79467,166.88486,218.604,-0.2138,-0.9746,0.4321,-0.505,0.055,0.058,11.099,-9.287,4.664,49
0.3134,-0.2081,0.6345,-0.675,8.375989,-88.44538,192.03548,161.9587,0.0034,-0.894,0.0512,-0.05,0.039,-0.009,10.799,6.763,9.149,38
0.363,-0.3793,0.4919,-0.6945,30.02535,-103.267784,164.26392,160.11113,-0.2377,-0.8994,0.2954,-0.364,0.805,-0.786,-15,-18.587,5.849,47
0.344,-0.1052,0.6448,-0.6743,9.551905,-80.25575,209.50227,145.83633,-0.166,-0.8491,0.1577,-0.115,0.536,0.197,12.557,23.546,-20.395,45
0.7923,-0.5767,0.0891,-0.1777,18.773838,-72.739525,174.46246,163.98781,-0.165,-0.895,0.3212,-0.035,0.223,-0.558,-20.1,-14.987,-31.337,50
0.0675,0.1168,0.6824,-0.7183,0.9347581,-89.39707,208.0376,149.50198,-0.2963,-0.9604,0.0415,0.006,0.117,-0.087,-9.887,3.914,-12.3,40
0.3909,-0.3444,0.4278,-0.7385,15.852356,-102.07741,165.77594,134.3474,0.2202,-1.0712,0.436,0.057,0.429,-0.35,-2.85,7.363,-8.237,43
0.4385,-0.1087,0.7096,-0.5405,9.071374,-62.261684,235.04332,154.11975,-0.437,-0.7612,0.1958,0.82,-1.836,-0.867,28.66,20.13,-3.163,13
0.0028,0.2346,0.6111,-0.7559,50.78837,-98.02716,214.79663,137.43248,-0.3125,-0.7836,0.1166,-0.163,0.201,0.092,-8.687,-1.637,26.999,29
0.3008,-0.1791,0.6286,-0.6943,6.500155,-89.44675,192.90155,157.57545,-0.2407,-0.996,0.0678,0.052,-0.095,-0.145,-28.037,-3.737,16.199,33
0.5894,-0.6462,0.1785,-0.4505,23.166065,-97.028404,142.67015,136.79465,-0.0595,-1.5595,-0.1679,-0.577,-3.369,0.292,15.149,-14.237,-18.887,17
0.0674,-0.0552,-0.5931,0.8003,7.6763806,-106.543304,180.74643,186.81036,0.3041,-1.0859,0.3183,-0.055,1.052,-0.414,4.199,19.649,-25.487,7
0.6794,-0.4805,0.5191,-0.1948,1.7603608,-60.014202,234.82579,198.19775,-0.5556,-0.8105,-0.0932,0.094,-0.267,-0.05,30.449,-26.537,0.299,48
0.4609,-0.5129,0.4794,-0.5427,5.5637097,-96.61938,167.08134,178.89981,0.2514,-0.9389,0.1132,-0.33,1.442,-1.524,-16.05,-14.387,-17.237,2
0.486,-0.432,-0.4229,0.631,19.965588,-95.49156,192.06949,213.26193,0.1313,-1.0239,0.3159,-0.92,-1.005,-0.967,-5.987,-4.487,-30.437,46
0.761,-0.6029,-0.1019,0.2165,12.070469,-77.561554,189.67558,199.88223,-0.2622,-1.0527,0.2539,0.317,-0.279,0.578,-18.266,-16.616,8.449,15
0.7924,-0.5874,0.0539,-0.155,15.989606,-73.254196,171.51915,163.55354,-0.0556,-0.8125,0.3305,-0.408,-0.195,0.352,28.949,-16.337,16.649,50
0.7741,-0.5964,-0.0711,0.1998,14.081428,-75.49829,191.45795,201.04828,-0.3432,-0.8144,0.3525,-0.369,-0.035,-0.574,30.77,-29.516,22.699,15
0.0311,0.2165,0.688,-0.6919,38.89179,-85.91389,219.281,140.46255,-0.1611,-0.916,-0.3061,-2.746,-3.007,0.699,22.349,-29.387,2.713,29
0.144,-0.0722,0.6142,-0.7724,23.983286,-100.45108,186.06001,160.9211,-0.1518,-0.8027,0.2314,0.126,-0.415,0.033,0.442,27.454,-21.619,45
0.256,-0.1103,0.6211,-0.7324,10.788104,-91.97917,194.80725,150.45978,-0.0947,-1.2172,0.2836,-0.251,0.411,0.306,-31.787,-26.987,-27.887,33
0.4527,-0.3944,0.4881,-0.6332,12.058403,-94.20595,174.5625,156.01425,0.1015,-0.9492,0.1665,-0.369,-0.092,-0.326,1.949,-25.937,5.699,42
0.6563,-0.4689,0.4226,-0.4129,30.423471,-76.32266,195.85945,166.36809,-0.018,-0.6997,0.0444,0.08,-0.72,1.289,24.899,-7.187,19.949,28
0.3828,-0.3793,0.5249,-0.6587,13.867552,-98.18595,170.36592,165.6701,-0.2607,-1.6831,0.1406,-0.711,-0.015,0.681,-0.3,-32.387,11.099,42
0.5887,-0.6585,0.2638,-0.3873,18.413965,-98.82015,157.28601,165.13455,0.1733,-1.3227,0.0683,-0.121,-0.71,-0.339,-31.089,6.767,2.914,20
0.5275,-0.3028,-0.4721,0.638,9.434951,-81.25733,170.68231,222.24405,0.3481,-0.8149,0.6567,-0.061,-0.45,-0.886,26.849,-31.937,-10.787,36
0.3279,-0.2756,0.6416,-0.6361,24.987478,-87.56505,187.835,173.00034,-0.2446,-0.8803,-0.0229,0.356,0.044,0.022,21.062,18.789,-4.881,34
0.1301,-0.0463,0.6965,-0.7041,31.833658,-88.95864,192.91217,166.51456,-0.4501,-1.0175,0.1948,-0.375,0.534,-0.109,24.46,-7.176,5.926,11
0.4748,-0.4291,-0.4532,0.6203,18.558094,-95.25737,189.55353,206.14806,0.0219,-1.0244,0.2402,0.19,0.258,-0.274,20.699,15.914,-5.537,46
0.617,-0.4461,0.4874,-0.4272,0.28834113,-75.89535,202.1331,171.46138,-0.2529,-0.9877,0.124,-0.013,-0.024,-0.011,-26.387,-0.137,16.049,30
0.5259,-0.5808,-0.3223,0.531,17.826994,-101.20608,207.9323,207.20598,-0.0883,-1.1093,-0.0214,-0.026,-0.232,-0.002,-17.828,-8.086,-0.964,23
0.0343,-0.2405,-0.6601,0.7107,18.207493,-92.48593,212.6496,145.80804,-0.0854,-0.8754,-0.0664,-0.27,-1.219,2.053,-27.887,1.363,7.649,40
0.7322,-0.6342,0.1095,0.2227,13.298388,-72.927284,221.4154,225.9731,-0.371,-0.7915,-0.0092,0.303,-0.236,0.396,14.839,-18.278,26.121,26
0.7247,-0.6667,0.1358,0.1086,13.944257,-78.88732,215.29236,214.58421,-0.5141,-1.0654,0.1093,-0.285,0.033,0.002,-22.51,-14.378,-22.765,26
0.6103,-0.4701,0.4661,-0.4349,4.253662,-79.229004,196.21725,171.02042,-0.3066,-0.9375,0.1669,-0.132,-0.281,-0.479,-26.837,0.613,16.499,30
0.3623,-0.4897,0.4725,-0.6368,19.206924,-106.9087,150.63321,180.21677,0.0039,-0.8881,0.0258,0.117,1.551,-0.789,-13.05,19.949,-11.237,2
0.5112,-0.4718,0.4457,-0.5632,31.300644,-93.07409,172.50833,160.8417,0.0771,-1.3627,0.0288,-0.764,-2.942,1.098,-20.4,20.399,-13.187,31
0.5536,-0.3565,-0.4522,0.6014,15.129729,-82.08812,173.84225,217.15355,0,-0.7773,0.4375,0.139,-0.921,-0.278,-30.437,-11.237,-28.787,36
0.6211,-0.485,0.4185,-0.4513,7.9094152,-81.7576,187.96758,164.30072,-0.1567,-1.1025,0.2968,-0.285,0.228,-0.083,-29.687,-20.387,29.099,32
0.6962,-0.3597,0.5853,-0.2076,14.513024,-48.280464,244.46895,189.12302,-0.4853,-0.7607,-0.0312,-0.999,-0.513,0.766,-9.6,6.749,30.449,48
0.7406,-0.4911,-0.3702,0.2705,29.62939,-68.146736,154.38419,183.09616,-0.0322,-1.3066,0.2416,-0.591,-0.234,0.455,-8.503,-27.098,-13.877,23
0.1645,0.1635,0.7497,-0.6197,21.139278,-69.541626,237.31036,138.27518,-0.0288,-0.871,-0.2065,-1.747,-0.537,1.148,-20.687,2.414,-17.237,29
0.4841,-0.3924,-0.5645,0.5412,8.541873,-83.56487,166.82088,188.37411,0.1572,-0.6723,-0.0288,0.584,-0.824,0.422,-7.035,20.667,15.819,16
0.528,-0.392,-0.4779,0.5821,24.199766,-85.90054,175.52194,206.626,-0.1884,-1.2236,0.3017,-0.281,0.468,0.106,-15.829,7.773,8.85,22
0.2091,-0.4947,0.4908,-0.686,23.443972,-111.184425,130.56732,218.48808,0.3208,-1.4423,-0.0468,-0.208,-2.101,0.052,-11.4,-13.637,-27.887,1
0.7121,-0.6905,0.1232,0.0278,4.22113,-85.0188,203.77924,202.70699,-0.1113,-0.7163,-0.0454,0.03,-0.461,0.857,19.199,0.313,-21.137,19
0.2843,-0.0318,0.6947,-0.6599,13.224088,-77.04286,217.75058,147.25798,-0.1743,-0.747,0.0561,0.37,-0.515,0.579,32.41,-18.876,3.226,11
0.7413,-0.6692,0.0474,-0.0166,2.1949153,-83.9701,185.005,184.03032,0.0146,-0.9145,0.0219,0.299,-0.131,0.478,-18.45,-15.737,-3.287,14
0.68,-0.492,0.3815,-0.387,4.036069,-76.41452,192.86475,165.8485,-0.0209,-1.1455,0.166,0.444,0.312,-0.678,-24.437,-14.837,20.999,32
0.7201,-0.6701,0.0756,0.163,6.4522367,-81.002235,213.42392,215.54343,-0.2578,-1.2509,-0.0869,-0.115,-1.274,0.831,26.089,-24.578,-27.715,26
0.3629,-0.2875,-0.571,0.6778,4.7269664,-93.15849,177.6065,200.26689,-0.1777,-0.955,0.226,0.061,0.262,-0.062,-11.779,-25.663,-23.399,22
0.5488,-0.4744,0.5163,-0.455,19.203138,-82.19683,195.13004,179.03702,-0.3242,-1.0483,-0.1152,-0.041,0.867,0.407,21.962,-17.497,28.405,34
0.3659,-0.1202,0.6213,-0.6822,4.1158156,-80.91966,207.26361,142.8055,-0.1772,-0.9692,0.1445,-0.124,-0.138,-0.021,28.799,22.063,22.199,33
0.6887,-0.5482,0.3144,-0.3552,11.977742,-80.519226,184.15964,165.6264,-0.1396,-1.0312,0.2968,-0.216,-0.208,-0.053,13.649,-29.837,30.599,8
0.6351,-0.6806,0.2384,-0.2762,10.537716,-94.50741,171.27892,176.72401,0.4223,-1.2524,0.0507,-0.347,2.308,-0.142,4.91,-25.169,5.014,20
0.6705,-0.5322,0.3247,-0.4019,3.368954,-81.72356,180.71634,160.23897,0.0917,-0.9287,0.1752,0.008,0.023,0.176,-6.3,17.414,-24.437,21
0.468,-0.3676,-0.607,0.5265,3.750649,-79.80384,159.32065,184.5364,0.52,-0.8442,0.1074,0.444,1.943,0.692,-32.535,26.217,21.369,16
0.6931,-0.5652,0.2861,-0.3438,6.149969,-81.63547,180.76193,164.4867,0.0966,-0.9018,0.0913,0.202,-0.799,0.457,16.049,-2.987,27.899,27
0.7153,-0.6786,0.1659,0.0158,7.885435,-82.22024,208.37024,205.87944,-0.0288,-0.9716,0.2504,0.043,0.732,-0.969,2.249,-13.787,-8.387,19
0.6804,-0.5142,0.4134,-0.3186,11.659979,-74.451225,203.50923,179.23976,-0.2792,-1.0268,0.1533,0.082,0.502,-0.578,-3.52,-9.404,-8.144,44
0.6718,-0.5323,0.3804,-0.3471,9.95404,-78.73247,194.11528,174.10378,-0.0336,-0.7412,0.1591,0.324,-0.033,-1.655,16.465,13.623,-26.424,44
0.356,-0.2345,-0.593,0.683,25.585728,-89.873795,170.18329,204.55077,-0.0927,-1.3627,0.2202,-0.176,0.459,0.636,17.399,-8.237,4.499,41
0.4028,-0.142,0.6979,-0.5748,12.806245,-69.34035,224.09032,156.94518,-0.5043,-0.9555,-0.0727,0.445,0.974,-0.47,32.616,-24.856,-17.296,13
0.4232,-0.4814,0.4852,-0.5946,0.8561696,-99.7434,162.72672,175.0107,0.1489,-0.999,0.0917,0.082,0.137,-0.058,-7.05,-5.087,29.849,1
0.7201,-0.6731,0.1562,-0.0617,7.4594655,-84.28003,195.46996,192.75983,-0.0668,-0.998,0.1,0.144,0.664,-0.784,22.799,-15.587,-29.987,19
0.7178,-0.6742,0.1727,0.0133,10.300905,-81.453735,208.9241,206.02866,-0.2216,-0.8945,-0.0683,0.081,-0.017,0.242,6.149,10.063,-16.637,19
0.6965,-0.5111,0.3328,-0.3778,6.390917,-77.23174,187.05472,162.25009,-0.0512,-1.0307,0.227,-0.017,0.464,-0.645,5.399,31.199,-9.287,21
0.6045,-0.4656,0.4107,-0.4989,3.4847991,-83.45144,182.98018,156.64992,0.0688,-1.0966,0.2685,0.162,0.023,-0.143,12.582,28.441,-19.077,4
0.6125,-0.6806,0.1282,-0.3807,2.9328234,-96.19008,141.7046,139.12437,0.2617,-0.9599,0.1049,-0.184,0.6,0.049,-29.654,-27.617,-1.946,5
0.7256,-0.6651,0.1476,0.0957,15.484399,-78.50512,215.3611,213.99663,-0.4946,-1.1357,0.2001,-0.354,-0.48,0.277,-25.96,16.958,-12.715,26
0.2702,-0.3327,-0.6347,0.6428,0.22375114,-92.41493,189.95944,170.99287,-0.0942,-1.0034,-0.0312,-0.041,-0.081,-0.013,26.09,-11.337,22.889,12
0.4217,-0.3788,0.5177,-0.6407,10.529101,-94.79203,175.2535,161.13261,-0.1567,-1.4838,0.2387,-0.451,-0.364,0.062,-26.4,-32.687,11.399,42
0.7039,-0.4778,0.2675,-0.4522,44.505207,-74.79377,175.45645,142.86084,0.0473,-0.7939,0.3593,-0.649,0.297,-0.834,21.149,29.849,-11.987,39
0.5652,-0.4108,0.4967,-0.5147,11.647708,-80.84128,193.52545,162.55469,-0.2255,-1.0502,0.0366,-0.615,0.535,-1.974,16.049,-10.937,29.699,28
0.6382,-0.4566,0.4714,-0.4023,24.323261,-74.65073,203.26349,172.45544,-0.1933,-0.851,0.1826,0.02,-0.872,-0.357,-21.184,-27.913,0.725,44
0.1387,-0.0165,-0.6265,0.7667,12.257767,-97.56277,166.05457,206.24994,0.0927,-0.9785,0.2685,-0.104,0.307,-0.008,12.449,-2.987,29.399,7
0.6145,-0.4188,0.4529,-0.4916,8.399954,-77.9316,193.34088,158.16249,-0.0913,-0.9453,0.35,-0.591,0.062,-0.934,31.653,12.495,20.607,4
0.7636,-0.6086,0.113,-0.1834,29.487251,-77.94216,175.29604,166.35806,0.0043,-0.8774,0.269,-0.04,-0.7,0.749,28.199,-2.987,-1.35,37
0.3324,-0.1048,0.645,-0.68,0.5909193,-81.46008,208.05583,146.50539,-0.289,-0.9619,0.1494,0,-0.005,-0.011,14.448,-31.795,-24.718,35
0.6474,-0.5053,0.3365,-0.4606,10.796387,-82.72658,177.29742,152.92859,0.0473,-1.0571,0.291,-0.085,0.756,-0.632,-19.05,-22.487,-7.187,21
0.6123,-0.521,0.427,-0.4137,19.797056,-83.21837,189.61261,173.66418,-0.0996,-1.0996,0.0576,0.23,-0.834,0.394,-13.684,18.873,-3.774,44
0.4591,-0.4058,-0.5941,0.5209,6.4357247,-82.6596,165.49112,179.60553,0.1679,-1.1025,0.0229,-0.111,-0.27,-0.092,27.451,-14.569,17.769,16
0.5741,-0.4088,0.5194,-0.483,8.552594,-77.69652,200.2933,167.62883,-0.2866,-1.1152,0.0029,0.142,-1.812,0.801,9.449,31.649,-12.887,30
0.6503,-0.692,0.1243,-0.2874,5.610275,-94.3991,153.71022,154.07901,0.2016,-0.913,0.0815,-0.096,0.875,0.006,2.51,-29.069,-4.885,20
0.1209,-0.0025,0.7081,-0.6956,32.970978,-86.65013,199.1015,161.87051,-0.602,-1.2817,0.0498,0.139,0.409,0.632,-21.426,-18.276,6.226,11
0.2129,-0.041,-0.5725,0.7906,19.60752,-98.11744,164.79604,222.43657,-0.1235,-0.7885,0.3466,0.009,0.727,-0.246,11.099,-9.287,4.664,49
0.2489,-0.198,-0.613,0.7231,9.88339,-96.239586,178.15793,195.25177,-0.0561,-1.5009,-0.0522,-0.937,-0.626,0.39,-1.55,-13.916,-15.325,18
0.3279,-0.0934,0.6226,-0.7043,5.2149096,-83.62754,205.82452,141.52573,-0.1889,-0.9433,0.2958,0.196,0.204,-0.456,20.099,15.763,29.399,33
0.2296,-0.0418,0.7029,-0.6718,18.597511,-81.32826,209.62842,154.27295,-0.1943,-1.5205,-0.0786,-0.036,-1.863,1.438,-32.226,-2.226,6.676,11
0.7024,-0.6672,0.2045,-0.1396,13.82553,-85.63777,191.24734,188.20528,0.2475,-0.6704,0.1333,0.312,0.394,0.585,-24.75,-2.387,3.164,17
0.5705,-0.7182,0.1987,-0.3451,13.476166,-104.70881,146.33609,163.11342,0.3305,-0.9062,-0.1972,0.831,-0.041,0.191,0.449,-0.437,0.613,39
0.6713,-0.3769,0.5951,-0.2301,14.39048,-51.53492,243.68658,189.91765,-0.5976,-0.8066,0.0048,-0.037,-0.121,-0.061,-28.937,14.563,-1.35,48
0.6334,-0.5483,0.3305,-0.4344,9.8625345,-86.80826,174.40155,159.14459,-0.1069,-0.9267,0.2475,0.017,-0.305,-0.025,-24,-5.087,-9.437,27
0.5178,-0.381,0.6014,-0.4741,6.961526,-74.88325,209.71869,177.02478,0.0332,-0.9384,-0.0649,-0.201,-0.602,0.148,-4.287,-3.097,-8.931,34
0.2727,-0.389,-0.588,0.6545,8.111493,-98.48732,201.23709,166.35835,0.0429,-0.8164,0.0336,-0.129,0.903,-1.617,-1.959,-28.287,-7.547,12
0.3562,-0.1582,0.6351,-0.6668,7.660938,-82.44747,203.85773,151.01733,-0.1987,-1.0053,0.1679,-0.093,-0.284,0.16,12.319,-32.437,-24.226,35
0.5414,-0.5842,-0.3522,0.4913,16.892248,-98.51903,200.43457,196.43257,-0.123,-0.6582,0.1264,-0.453,0.221,-0.971,-14.678,-5.686,-2.614,23
0.4068,-0.3394,0.6307,-0.5669,11.795856,-82.66359,195.01534,176.63295,-0.0805,-0.6997,-0.062,0.572,1.222,-0.936,20.312,-14.647,-18.381,34
0.3627,-0.2294,-0.5955,0.679,26.943531,-88.740295,168.39389,205.4229,-0.2084,-0.8764,0.1474,0.268,0.564,-1.073,20.999,31.199,23.699,41
0.8019,-0.5773,0.0642,-0.1395,14.735733,-71.83511,174.97827,166.81349,-0.1455,-0.8066,0.3144,-0.023,0.483,-0.722,28.949,-16.337,16.649,50
0.3629,-0.3152,-0.5425,0.6888,1.5775466,-96.80784,183.8243,201.00378,0.0039,-0.9208,0.0747,0.205,-0.137,0.011,-5.329,-23.863,-27.599,22
0.7722,-0.6093,0.164,-0.0733,22.92922,-75.36613,195.51794,187.9534,-0.2158,-0.958,0.2685,0.32,0.495,-1.168,19.499,2.863,13.199,37
0.1948,-0.2126,-0.6038,0.743,5.877248,-101.15358,187.82312,184.6573,-0.0903,-0.9833,0.1552,0.016,0.123,-0.043,20.999,23.563,3.599,41
0.294,0.0562,0.7831,-0.5449,0.35559887,-58.739044,248.46725,147.45891,-0.5766,-0.7836,-0.2402,0.051,0,0.05,-2.687,-0.287,32.549,29
0.7327,-0.497,0.3987,-0.2386,13.877852,-66.82536,212.58401,183.841,-0.104,-1.0351,0.1513,-0.124,0.246,0.119,2.633,-7.602,-13.245,44
0.7438,-0.667,0.0408,-0.0056,2.402565,-83.57416,185.5075,184.75691,0.0205,-0.8227,0.0717,0.39,-0.163,0.482,2.699,22.649,-11.987,14
0.4113,-0.3526,-0.5986,0.5899,17.912382,-86.61935,171.54968,186.84781,-0.1645,-0.9301,0.0737,-0.217,-0.183,0.133,-16.343,-7.548,-16.74,12
0.757,-0.6108,0.0226,-0.2307,33.28659,-76.26118,157.63551,148.67122,0.207,-1.225,0.3803,0.019,-0.345,0.497,-27.887,-1.487,-13.95,37
0.7306,-0.6315,0.151,0.2108,15.7932005,-70.314026,225.6644,228.26825,-0.3891,-1.164,0.0932,0.264,0.771,-0.307,-12.01,13.658,-10.765,26
0.4723,-0.3399,-0.4687,0.6645,7.451173,-90.370895,180.77525,218.4811,0.229,-0.6625,0.312,0.103,0.701,0.432,25.799,-6.137,-26.237,36
0.3389,-0.2951,0.5747,-0.6839,15.136218,-95.29619,178.61273,164.09586,0.039,-1.0991,0.1938,0.123,-0.95,0.429,-27.9,-10.937,-11.537,24
0.2576,-0.1347,0.6134,-0.7342,8.686073,-93.63113,191.15395,152.94078,-0.1655,-0.9726,0.2084,0.03,0.004,-0.043,-14.079,10.294,-30.313,45
0.459,-0.3165,-0.5126,0.6528,1.6143523,-88.46002,174.84418,212.3666,0.125,-0.9335,0.248,0.105,-0.125,0.675,30.299,-7.037,32.399,36
0.2637,-0.2588,-0.5788,0.7269,13.851041,-100.495316,186.79408,191.8236,0.2451,-1.0864,0.1552,-0.077,-2.608,1.698,-8.4,-8.987,10.799,41
0.8153,-0.5586,0.1471,-0.0378,7.400693,-67.62641,196.87543,188.5576,-0.1367,-0.9379,0.3408,0.075,-0.479,-1.75,22.049,-17.687,9.299,50
0.2643,-0.1361,0.6146,-0.7306,7.793321,-92.93417,191.91736,152.51776,-0.1542,-0.9721,0.1987,-0.058,-0.028,0.06,-13.779,9.544,-29.263,45
0.7158,-0.6557,0.1359,0.1977,12.4565525,-74.79729,224.73174,226.96516,-0.2436,-0.666,0.019,0.28,-0.153,0.689,-27.61,27.458,-12.565,26
0.4674,-0.386,-0.5135,0.6072,14.334527,-90.29524,178.90112,200.13347,0.1372,-1.3535,-0.0732,0.294,-3.153,0.873,-24.529,7.923,15.6,22
0.4353,-0.4635,0.469,-0.6128,11.968469,-99.7318,163.90651,166.24916,0.1801,-0.9663,0.2724,-0.011,1.419,-1.392,3.599,-7.937,-26.387,28
0.7758,-0.5727,-0.0271,0.2631,11.838106,-71.12518,201.86949,214.75659,-0.2587,-0.7983,0.3261,-0.214,0.171,-1.007,20.72,-13.316,22.399,15
0.0433,-0.0656,-0.6352,0.7682,18.635395,-100.88112,184.42844,177.624,0.145,-1.1201,-0.0468,0.09,0.291,0.365,-12.67,11.404,-3.688,18
0.7074,-0.5646,0.2553,-0.3397,8.52429,-80.55149,177.91696,160.70181,0.1757,-0.9179,0.2172,-0.334,0.509,-0.547,-17.7,2.563,-11.987,9
0.636,-0.5184,0.3263,-0.4692,11.1193695,-84.98086,173.45673,151.6079,-0.1235,-0.9057,0.2807,-0.041,0.095,-0.449,18.149,-5.837,25.949,21
0.6256,-0.6649,0.1893,-0.3612,13.886273,-95.65051,153.73758,153.62543,0.7026,-1.0283,0.0253,0.451,-1.388,0.155,-5.289,26.867,-0.235,20
0.4148,-0.3143,0.5095,-0.6851,26.946375,-93.739334,179.28784,147.93375,-0.2294,-0.9189,0.29,-0.033,0.578,-0.861,25.486,-21.587,24.599,47
0.7335,-0.6662,0.1134,-0.0722,6.7976103,-84.04728,187.38945,184.69609,-0.0756,-0.9497,0.121,-0.085,-0.69,0.128,6.299,19.063,-24.437,19
0.7527,-0.656,0.0518,0.0197,5.8507495,-81.55316,190.46353,189.80157,-0.0205,-0.623,-0.0112,0.208,-0.251,0.427,2.699,22.649,-11.987,14
0.225,-0.3425,-0.5914,0.6943,10.202936,-100.8538,202.24672,166.79674,0.124,-0.6777,0.0263,0.367,0.779,2.039,-14.709,8.449,-0.047,12
0.7573,-0.5839,-0.1038,0.2734,5.4091897,-75.99525,194.24988,208.14032,-0.2338,-1.0014,0.038,0.291,-1.483,1.123,-23.966,-9.116,-7.301,15
0.6091,-0.587,0.2388,-0.4766,17.630459,-92.200386,154.68896,141.34561,0.3032,-1.3237,0.4531,-0.948,0.899,0,3.082,-27.311,19.259,5
0.5358,-0.4483,-0.4452,0.5599,27.819841,-89.29068,182.37804,203.38043,-0.1806,-1.3183,0.3959,-0.364,0.164,0.172,-1.65,-18.437,19.513,46
0.8155,-0.5557,0.1517,-0.0542,9.10059,-67.60029,195.95192,186.67082,-0.1298,-0.7617,0.4291,-0.266,-0.598,-1.462,4.649,-6.737,27.449,50
0.5739,-0.4129,0.4477,-0.5474,23.114302,-82.94728,185.62724,152.56998,-0.2041,-0.8569,0.2968,-0.255,0.924,-0.229,20.399,28.799,-16.037,32
0.4015,-0.4257,0.4787,-0.6543,22.861725,-101.610085,163.33026,162.83357,0.2128,-1.2421,0.4248,-0.203,-0.329,0.511,-31.2,27.749,16.649,47
0.2694,-0.3317,-0.6356,0.6429,0.14800961,-92.34074,189.88503,170.97015,-0.0747,-1.0161,-0.0302,-0.04,0.021,0.01,26.09,-11.337,22.889,12
0.4591,-0.422,0.5312,-0.5733,3.4085748,-90.43721,180.41238,170.94456,-0.0053,-0.6762,0.0385,-0.005,0.044,-1.747,-6.75,28.799,-9.137,28
0.4725,-0.3885,0.3831,-0.692,4.220617,-95.064354,165.73996,128.58589,0.1445,-0.8134,0.2636,0.235,-1.067,0.554,-32.537,-22.037,-21.587,43
0.7054,-0.7009,0.0923,0.05,10.533503,-87.02832,202.64973,202.34572,-0.1669,-1.0444,-0.0493,-0.183,-0.143,0.003,21.449,26.263,-22.637,19
0.7833,-0.6089,-0.1194,0.0344,10.932551,-74.775246,166.53302,171.66295,-0.1826,-0.9086,0.2573,-0.31,0.5,-1.112,1.799,30.149,-29.237,6
0.6487,-0.5854,-0.3061,0.3777,32.275093,-87.363075,184.58116,194.58092,-0.164,-0.9335,0.0805,0.51,1.205,-0.643,29.258,-25.936,11.185,23
0.5093,-0.3952,0.5326,-0.5482,19.875322,-84.04439,191.14017,165.57681,-0.2109,-1.2324,0.2451,-0.225,-0.054,-0.019,15.599,32.549,-17.087,30
0.4799,-0.4285,0.5267,-0.5554,1.3774612,-88.727234,183.14157,170.801,0.1352,-0.8979,0.1777,0.002,1.895,-1.092,-13.35,-4.637,-10.937,28
0.1312,-0.2844,-0.5732,0.7571,9.811284,-106.55244,206.7006,159.12769,-0.1845,-1.2939,0.2773,-0.008,0.859,-0.694,28.349,-16.937,3.449,41
0.6989,-0.5826,0.2858,-0.3003,7.748709,-81.53667,184.90646,171.29941,-0.0986,-0.8676,0.0288,0.103,-0.404,-0.182,15.599,25.349,-21.137,8
0.0896,-0.2382,-0.6366,0.7279,26.017328,-97.884026,204.4113,156.37929,0.0102,-1.0214,0.2021,-0.014,1.584,-1.839,-1.487,-4.487,1.349,40
0.8001,-0.5738,-0.1045,0.1396,4.8179708,-71.90316,179.39061,189.08583,0.0922,-0.7333,0.2924,-0.402,0.221,-1.073,-8.7,31.199,27.899,6
0.6691,-0.4673,0.4356,-0.3795,19.406322,-73.55709,201.83234,170.96431,-0.1782,-0.9375,0.0874,0.252,-1.137,0.632,27.702,11.523,13.625,44
0.7947,-0.5643,0.1397,0.1742,20.52761,-63.42521,215.0986,216.90918,-0.1938,-1.3354,0.2573,0.191,0.778,0.687,-16.487,-20.537,-14.7,37
0.2871,-0.1838,0.6555,-0.6738,13.1541195,-87.41418,193.68083,163.7817,-0.1391,-1.0717,0.165,0.084,0.368,0.104,11.099,11.263,9.749,38
0.5057,-0.7622,0.2139,-0.3426,4.472125,-113.342125,135.41629,176.11765,0.3217,-0.8891,-0.2285,0.648,-0.043,0.104,-1.05,0.914,6.313,39
0.3984,-0.0865,0.5811,-0.7042,10.937601,-78.06895,209.21329,130.22525,-0.2553,-0.8706,0.4038,-0.255,0.231,-0.592,15.568,24.337,31.728,35
0.6013,-0.42,0.4452,-0.5135,18.249285,-80.05516,189.51364,155.45178,-0.0888,-0.9619,0.2661,-0.09,-0.179,-0.032,7.349,6.914,22.049,32
0.2969,-0.2168,-0.5717,0.7333,16.9254,-97.31926,178.03046,205.4657,-0.1909,-0.5971,0.1425,0.154,1.088,-0.193,-32.62,-32.546,18.361,18
0.5217,-0.4009,-0.5864,0.4723,11.812313,-76.54368,153.5073,182.1038,-0.061,-0.5322,-0.0117,0.197,0.486,-1.281,-6.585,-32.419,10.119,16
0.1725,-0.1812,-0.6549,0.7129,30.079134,-94.72379,183.45113,181.07614,0.1933,-0.7392,0.2207,0.447,-0.157,-1.951,-1.487,-4.487,1.349,40
0.6705,-0.3352,0.6323,-0.195,19.962538,-44.382366,252.66391,190.92168,-0.9716,-0.8974,0.0776,0.446,0.708,-0.528,-13.2,-22.937,24.299,48
0.0886,-0.0653,-0.5949,0.7961,11.187028,-105.71113,179.87091,190.01193,-0.0717,-0.7041,0.1909,-0.143,1.812,-0.901,24.149,30.899,27.899,7
0.7391,-0.4821,0.3959,-0.2536,22.670433,-66.02038,211.17764,180.55872,0.1069,-1.6528,0.3593,-0.579,0.877,-0.78,0.599,20.549,-8.987,31
0.7876,-0.5807,0.0827,-0.1883,20.250666,-73.34523,172.28604,161.83072,-0.2373,-0.8579,0.3955,-0.042,0.963,-0.686,25.049,-8.687,2.999,50
0.3394,-0.3403,-0.5181,0.7074,6.126075,-102.20579,192.03354,198.87973,-0.1123,-1.0029,0.185,-0.02,0.042,-0.239,-8.329,2.387,-14.249,22
0.318,-0.2379,0.618,-0.6784,6.078843,-90.81537,187.16246,163.80905,-0.2006,-1.0424,-0.0083,0.011,-0.365,0.083,-13.337,2.713,-11.25,38
0.7214,-0.6214,0.2863,-0.1058,4.6634903,-76.14991,209.66745,199.14392,-0.2734,-0.9716,-0.0849,-0.053,-0.863,0.576,-17.1,0.613,-5.087,3
0.2006,-0.3175,-0.5618,0.737,15.805642,-106.4348,203.49078,170.19316,0.0581,-0.9672,0.3012,0.152,1.266,-1.895,14.099,-6.737,22.649,41
0.7659,-0.5645,-0.0224,0.3067,9.617683,-69.95765,205.81316,221.46974,-0.0917,-0.8906,0.3784,-0.604,-0.07,-0.947,32.27,13.984,5.149,15
0.7191,-0.6798,0.0548,0.1324,7.2501364,-83.80304,207.21426,208.57684,-0.3681,-0.9052,0.0971,0.226,0.415,-0.002,22.381,-16.19,23.243,26
0.7361,-0.6751,0.0243,-0.0406,3.351159,-85.083206,177.99258,177.15273,-0.0424,-0.8261,0.1274,0.023,1.655,-0.61,20.399,-24.887,28.499,14
0.4953,-0.2937,-0.6506,0.4949,9.508057,-69.7433,140.31934,189.24228,0.1918,-0.9995,-0.1245,0.165,0.599,-0.14,-24.435,-31.519,6.369,16
0.4697,-0.5558,-0.3228,0.605,18.41231,-106.41664,214.94171,215.74982,-0.1416,-1.2783,0.0878,0.102,0.602,0.17,-11.528,21.45,-5.764,23
0.709,-0.6904,0.127,-0.0659,4.2083864,-87.46151,190.0419,189.02776,-0.1108,-1.0068,-0.0605,0.206,0.105,0,-27.137,6.763,26.999,19
0.7309,-0.4455,0.4152,-0.3078,18.960373,-65.29162,209.62852,173.52014,-0.1425,-0.8359,0.0869,0.17,0.242,0.953,-26.284,23.373,10.925,44
0.4672,-0.3586,0.5661,-0.5766,0.15160555,-84.6027,191.96454,165.95087,-0.1083,-1.0068,0.0961,-0.011,-0.063,-0.006,7.349,-17.987,-3.75,42
0.4272,-0.3856,0.4743,-0.6661,22.115055,-97.71252,170.1012,151.97972,-0.3198,-0.8041,0.3076,-0.406,1.099,-0.989,-24.15,25.049,12.449,47
0.3862,-0.2012,-0.601,0.6701,29.468815,-84.52907,161.52583,210.23517,0.0102,-1.0986,0.2382,-0.094,-0.036,-0.611,8.849,27.149,25.649,41
0.6913,-0.56,0.3126,-0.3324,9.430323,-80.67811,185.82915,169.13676,-0.1064,-0.8149,0.1406,0.162,0.099,0.157,0.599,21.299,-15.437,8
0.2587,-0.0794,0.6172,-0.7387,11.242786,-90.79959,198.72736,144.79396,-0.1518,-1.1821,0.2319,-0.435,-0.639,0.028,-6.75,-8.837,-24.437,33
0.3369,-0.0923,0.6397,-0.6845,9.840829,-80.89101,209.33363,143.65878,-0.3076,-1.0117,0.0761,0.163,0.504,-0.215,-30.642,-29.69,3.904,45
0.6088,-0.399,0.5083,-0.46,20.417585,-73.90525,204.40541,165.99928,-0.0708,-0.8515,0.0058,0.2,-0.477,1.308,-19.5,-24.287,-3.887,28
0.4949,-0.306,0.5054,-0.637,18.2646,-84.02643,189.69792,144.40988,-0.0629,-0.958,0.1977,0.099,0.232,0.792,18.136,-22.937,27.749,47
0.1677,0.2406,0.7306,-0.6165,30.968597,-66.334564,247.13123,127.160736,-0.6831,-1.2226,-0.1401,1.997,1.884,-0.376,-26.537,-7.187,-22.337,29
0.7152,-0.5637,0.3231,-0.2572,0.5116322,-76.58227,196.95442,179.66176,-0.2031,-0.9804,0.1801,-0.087,-0.066,-0.059,26.849,-6.737,15.149,8
0.3783,-0.3632,0.4323,-0.7334,15.586516,-104.592545,162.82594,139.90013,-0.1083,-0.6718,0.3164,-0.158,0.317,-0.187,-26.987,-12.887,-30.737,43
0.6998,-0.6967,0.0972,-0.1238,9.503215,-90.00664,175.86533,175.65962,0.0087,-1.2006,0.0375,-0.208,-0.474,0.4,-16.65,-12.737,-6.887,19
0.0653,-0.0692,-0.6183,0.7801,3.7287776,-103.088936,182.54413,182.41687,-0.0058,-0.9902,0.1611,-0.186,-0.854,-0.082,-13.05,31.049,-15.587,7
0.7926,-0.584,0.0726,-0.1589,16.239183,-73.1853,173.82368,164.97408,-0.1342,-0.8852,0.3178,-0.276,0.249,0.211,22.499,1.363,7.349,50
0.3302,-0.1121,0.6444,-0.6804,1.4088801,-82.10043,206.84627,147.57735,-0.2807,-0.9638,0.1484,-0.009,-0.018,-0.019,14.598,-30.745,-25.318,35
0.445,-0.4156,-0.4281,0.6676,16.080656,-99.36266,195.38538,214.71053,-0.1254,-1.3603,0.3476,-0.728,1.734,0.249,14.399,7.513,-5.087,46
0.7312,-0.5492,0.2578,-0.3115,11.173095,-76.86607,183.16066,163.6816,0.0512,-0.9218,0.1899,-0.076,0.459,-0.16,14.399,-30.287,-29.837,27
0.7038,-0.7004,0.0988,-0.0645,2.3997614,-89.27682,185.58403,185.39655,0.0888,-0.9248,0.0122,0.257,-1.015,0.674,-11.7,-2.987,-7.187,19
0.2921,-0.0999,0.6663,-0.6786,13.852256,-82.85804,206.16368,152.06282,-0.2666,-0.9155,-0.081,0.271,-0.694,0.381,-23.526,-6.276,-9.974,11
0.0942,-0.1186,-0.6082,0.7791,22.844501,-104.023,186.52544,180.38078,-0.1635,-0.8354,0.2314,0.507,0.384,-0.484,-16.337,3.013,-15.3,40
0.6335,-0.4407,0.4943,-0.4,27.347878,-72.81885,207.40451,173.6948,-0.3471,-0.9082,0.1723,0.094,-0.098,-0.459,-21.184,-27.913,0.725,44
0.5265,-0.4035,0.5015,-0.5552,18.321548,-84.93545,187.82037,160.68753,-0.3886,-1.0522,0.1713,-0.562,0.071,0.052,-13.65,-20.387,-15.587,30
0.2733,-0.1775,0.6004,-0.7302,6.058827,-95.15172,186.4926,155.87563,-0.1757,-0.9418,0.1074,0.032,-0.094,0.147,4.942,-19.632,26.067,45
0.2991,-0.1191,0.6273,-0.709,6.6653357,-87.465,199.7696,148.24962,-0.038,-0.8764,0.1201,-0.178,0.195,0.945,25.594,25.646,8.554,45
0.3499,-0.45,0.5242,-0.6326,11.355223,-101.795715,158.0704,184.19366,0.2968,-0.644,0.1098,-0.185,0.281,-1.744,-15.6,-17.237,-19.337,1
0.2415,-0.1163,-0.5683,0.7778,8.776927,-99.177795,171.93051,215.41669,0.3403,-1.1083,0.7841,-0.991,-0.833,-0.366,4.149,-24.866,-23.875,18
0.8124,-0.5498,0.1868,0.0514,15.356475,-63.248936,210.39708,203.48784,-0.1875,-0.7773,0.1699,0.395,-0.062,0.661,25.799,-16.487,8.699,50
0.5097,-0.3944,0.5322,-0.5488,19.919748,-84.01438,191.16185,165.34607,-0.2197,-1.2304,0.2529,-0.233,-0.119,-0.073,15.599,32.549,-17.087,30
0.5994,-0.3629,0.5155,-0.493,13.032948,-73.26393,204.37323,160.31644,-0.2768,-0.6835,0.2656,0.343,1.074,-0.687,14.249,12.013,30.749,30
0.6566,-0.6152,-0.2755,0.3381,37.87333,-88.56046,185.69003,191.82529,-0.1225,-1.2495,0.0024,-0.625,0.082,0.497,26.558,-24.586,-1.714,23
0.5382,-0.5113,0.446,-0.4997,26.646856,-90.90014,176.71642,170.42982,-0.3867,-0.7958,0.0292,0.56,3.297,-1.543,-14.85,25.649,-4.337,31
0.5293,-0.3239,0.4872,-0.6143,13.170077,-81.74957,190.23817,144.16196,-0.0698,-1.2163,0.206,-0.454,-0.055,-1.193,-25.8,16.949,30.449,47
0.6368,-0.4541,0.4749,-0.4031,24.810043,-74.46923,203.73651,172.55765,-0.2094,-0.8466,0.185,0.04,-0.835,-0.397,-21.184,-27.913,0.725,44
0.6052,-0.4126,0.4565,-0.5049,18.571775,-78.61809,192.48552,156.94298,-0.0009,-0.9672,0.3247,0.228,0.037,0.053,5.249,4.813,25.499,32
0.6153,-0.4764,0.3753,-0.5033,2.7546277,-83.963165,178.3952,151.71448,0.1953,-0.9941,0.2563,0.511,0.332,0.229,1.164,30.263,-25.49,4
0.7088,-0.417,0.4787,-0.3072,24.853716,-62.336636,218.97833,177.16138,-0.4545,-1.3452,0.2519,-0.26,1.484,-0.509,-22.234,-5.126,15.725,44
0.1334,0.2297,0.7013,-0.6614,31.903744,-74.72819,236.66876,127.861595,-0.6762,-0.6523,0.06,0.581,-0.614,0.038,21.166,-8.849,4.085,29
0.7602,-0.5534,-0.0748,0.3317,6.0121574,-71.36408,200.8711,219.72015,-0.1621,-0.9418,0.1713,0.126,-0.137,0.431,28.37,22.534,3.199,15
0.6814,-0.5414,0.3697,-0.3251,9.541951,-78.24409,195.1705,175.92749,0.394,-1.0087,0.0336,-0.478,1.244,-2.05,32.249,-5.237,24.299,31
0.646,-0.5894,0.3288,-0.3563,33.42054,-86.78213,180.50563,172.07948,-0.0244,-1.2753,0.1269,-0.158,0.346,0.674,-11.55,-9.287,-23.987,3
0.045,0.2023,0.5981,-0.774,48.485756,-98.35446,213.95111,133.16016,-0.478,-1.1875,0.0273,0.446,1.31,-0.035,-9.287,1.213,23.849,29
0.4566,-0.3622,-0.4287,0.6902,12.835859,-94.87604,189.05759,224.3471,-0.1225,-0.956,0.2309,0.114,0.441,0.107,-30.137,-6.587,-30.587,36
0.5955,-0.4559,0.395,-0.5304,5.232323,-84.62388,178.81314,150.22086,-0.0952,-1.039,0.476,-0.365,-0.206,-0.263,-7.283,-27.384,-26.038,4
0.7262,-0.6777,-0.0223,-0.1131,12.818074,-84.74254,160.49463,159.1234,-0.0815,-0.9506,0.143,-0.202,0.301,-0.689,16.799,-6.437,26.849,14
0.6986,-0.6045,0.2694,-0.2717,8.136834,-82.87774,184.8837,174.49411,-0.0117,-1.1425,-0.0117,0.204,0.35,0.139,24.899,-12.437,31.199,8
0.6086,-0.4993,0.3433,-0.5121,17.214245,-86.715576,171.54578,147.94553,-0.0693,-0.9365,0.3208,-0.044,0.253,-0.363,-25.2,-24.887,-9.137,21
0.3341,-0.134,0.6303,-0.6877,0.049864616,-84.20285,202.90634,148.13,-0.2504,-0.9672,0.1733,0,0.011,0.017,-23.987,-4.487,13.049,33
0.4876,-0.4731,0.4338,-0.5916,36.63173,-96.62537,166.73059,157.88602,0.0996,-1.2231,0.2182,0.634,0.714,-0.322,-14.85,25.649,-4.337,31
0.319,-0.2725,-0.6484,0.6351,10.849903,-87.29716,172.3491,185.68074,0.0522,-0.9746,0.1762,0.044,0.218,-0.727,24.74,-11.037,26.339,12
0.5668,-0.4192,0.4581,-0.5413,2.0690906,-83.569115,186.1015,155.61205,-0.0751,-0.9824,0.2246,-0.055,-0.069,-0.034,-5.7,-22.037,-9.75,47
0.4557,-0.2853,-0.5135,0.6686,2.5021899,-87.18555,172.44077,217.10268,0.0966,-1.0014,0.2182,0.039,0.452,-0.269,-15,-9.437,1.213,36
0.4656,-0.3765,0.3809,-0.7044,6.404957,-95.03835,165.94952,125.95508,0.2065,-0.9775,0.3559,0.203,-0.641,0.355,-13.037,-6.437,-30.437,43
0.7481,-0.5021,0.3518,-0.2535,23.10223,-68.43079,204.57607,177.81973,0.497,-1.2646,-0.0004,0.635,-0.717,2.077,2.549,-16.337,-24.887,31
0.6057,-0.6838,0.127,-0.3864,3.4505541,-96.9355,140.11311,137.95322,0.3706,-1.1586,-0.1259,1.437,-1.448,1.086,23.782,12.875,16.859,5
0.4951,-0.3132,-0.4819,0.6514,5.30695,-85.50942,174.08774,219.54047,0.2661,-0.5346,0.622,-0.107,-0.867,-0.428,14.849,-21.437,-20.387,36
0.7127,-0.5412,0.2923,-0.3371,10.109283,-77.90341,184.76906,164.25304,-0.0024,-1.1655,0.2558,-0.06,-0.659,0.245,26.399,-15.587,19.499,8
0.5839,-0.6582,0.2701,-0.3908,22.582691,-99.19557,157.206,166.11223,0.4335,-1.4433,0.0375,0.287,-0.522,0.315,-4.089,27.617,20.464,20
0.4713,-0.4339,0.5315,-0.554,0.03423002,-89.24849,182.19073,173.08626,-0.0244,-1.0219,0.0649,0.011,-0.021,-0.01,26.849,5.414,23.249,28
0.6981,-0.5687,0.2752,-0.3367,10.603344,-81.47596,180.12129,164.11807,-0.0039,-1.1997,0.1347,0.192,0.534,0.303,13.949,25.949,-20.537,9
0.3416,-0.23,-0.5903,0.6941,24.28101,-91.454384,171.97052,204.58063,-0.1171,-0.8427,0.0795,-0.101,0.541,-0.68,-23.387,-15.437,-5.85,41
0.0851,-0.0851,-0.6268,0.7697,5.1954775,-101.470314,182.32346,183.48169,-0.0278,-1.0961,0.0922,0.601,-0.001,1.124,25.799,-20.387,30.299,7
0.6913,-0.5897,-0.2848,0.305,41.406593,-82.82803,176.5841,188.77692,-0.2724,-0.8222,-0.0107,0.545,0.774,-0.878,3.771,15.15,10.135,23
0.09,-0.0774,-0.6052,0.7871,6.891077,-104.36526,181.17824,187.33516,0.1396,-1.0234,0.2065,-0.321,-0.751,0.077,-12.45,30.449,-17.987,7
0.7111,-0.6787,0.1824,-0.0181,7.05554,-82.89744,206.12961,203.26057,-0.2153,-1.0195,0.0742,-0.014,0.536,-0.569,-17.987,-2.837,-32.387,19
0.0564,-0.204,0.6894,-0.6927,10.045592,-89.99268,156.0543,203.97043,0.2319,-1.246,-0.0947,1.02,-0.271,-0.213,17.099,-4.637,-31.937,10
0.4497,-0.3919,-0.449,0.6651,12.911761,-96.721886,190.41327,213.91403,-0.1508,-0.9428,0.1323,0.36,-0.807,0.303,28.799,27.013,-18.137,46
0.1484,0.0276,-0.5877,0.7948,9.953464,-99.6184,161.04189,220.12144,0.081,-1.1455,0.4863,-0.191,-0.116,0.134,-16.487,-1.937,-32.387,49
0.3642,-0.123,0.6227,-0.6814,3.670369,-81.134056,206.9384,143.50545,-0.2436,-0.9677,0.1362,-0.058,0.034,-0.106,28.799,22.063,22.199,33
0.6485,-0.328,0.6161,-0.3037,23.317286,-53.100723,240.64651,180.73488,-0.6181,-0.6245,-0.0625,-0.434,-1.19,0.283,-2.4,5.999,31.949,48
0.3192,-0.3426,0.4291,-0.7723,23.858429,-111.015724,159.2869,141.63309,0.0781,-0.8325,0.4453,0.053,0.107,-0.394,14.849,28.349,14.863,43
0.0701,-0.1648,0.5599,-0.8089,2.92465,-110.80401,163.75996,192.74779,-0.0888,-1.1103,0.3735,0.392,0.679,-0.359,4.499,25.349,-13.487,25
0.3185,-0.169,0.6116,-0.7041,0.08420684,-89.27479,194.46759,151.46951,-0.1503,-0.9799,0.1967,0.008,-0.009,0.006,9.292,-20.082,25.317,45
0.1669,-0.1369,0.6551,-0.724,27.444864,-94.68426,182.12135,172.20088,-0.3286,-1.1372,0.0541,-0.436,-0.399,0.238,3.299,31.649,20.999,38
0.4989,-0.3891,-0.6226,0.4603,8.36379,-74.10891,148.14099,177.73018,0.249,-1.0957,-0.1181,-0.156,0.774,-0.131,-32.535,21.567,16.269,16
0.3501,-0.4497,0.4936,-0.6568,18.809963,-105.49202,155.05038,177.50533,0.1069,-1.1479,0.1821,-0.069,-0.817,-0.369,-14.7,22.499,-7.187,28
0.2103,-0.1154,0.6436,-0.7267,13.281178,-93.21318,190.28139,160.55391,-0.395,-1.3701,0.06,-0.509,-1.779,2.007,27.414,9.47,11.085,35
0.0318,-0.036,0.56,-0.827,11.426803,-111.74244,177.9986,177.7644,0.2348,-1.0126,0.1977,0.981,-0.134,0.206,-21.887,-1.787,-15.887,49
0.4664,-0.3883,-0.6008,0.5202,5.6423893,-80.94251,161.79254,181.84813,0.498,-0.9301,0.0815,-0.4,1.896,-0.154,-23.685,16.017,9.519,16
0.2981,-0.3197,-0.6316,0.6402,3.0496244,-91.362755,183.76505,177.39775,0.1762,-0.9843,-0.3251,1.052,-2.937,2.114,-1.209,-20.637,-18.497,12
0.4578,-0.3711,0.3911,-0.7068,6.532343,-95.6881,166.60919,127.588806,0.0131,-0.9204,0.1464,0.564,-1.417,0.729,-0.9,-28.787,20.713,43
0.6964,-0.5612,0.3065,-0.3254,28.767923,-80.303635,185.97418,169.2241,-0.2314,-0.9038,0.2626,0.177,0.232,-0.64,8.249,-13.037,18.599,3
0.7188,-0.5209,0.3084,-0.3418,8.770149,-75.6837,187.8804,164.17276,-0.0146,-1.0595,0.1933,0.014,-0.173,-0.041,13.499,-10.187,31.949,21
0.2463,-0.2096,0.6376,-0.6991,14.9788475,-93.38943,182.19174,170.56668,0.2695,-0.9135,0.062,0.285,-1.109,0.487,-9.737,4.813,5.099,38
0.4451,-0.3885,0.5539,-0.5865,12.800196,-88.9492,183.94832,169.62032,0.1958,-1.2177,0.1962,0.06,0.152,-0.426,-14.85,-23.087,-20.387,1
0.6179,-0.5146,-0.4015,0.4381,19.121912,-84.17948,175.48033,193.46286,-0.0043,-0.9472,0.1625,0.413,1.177,-1.386,8.144,-25.424,-20.622,23
0.5205,-0.401,0.4747,-0.5854,12.992491,-87.39377,182.3034,154.04927,0.1381,-1.2353,0.2036,0.288,0.552,0.044,-23.55,20.849,11.999,42
0.4349,-0.3523,0.5311,-0.636,8.313925,-91.341934,181.3343,158.49326,-0.1396,-1.2749,0.2338,-0.296,-0.756,0.388,8.236,25.349,27.299,42
0.6399,-0.6934,0.0876,-0.3192,11.027121,-93.83069,144.17706,142.02962,0.5654,-0.7807,-0.0366,0.238,-1.745,0.176,-3.639,-19.319,-5.485,20
0.7173,-0.6436,0.1529,0.2184,15.253826,-71.46198,227.98671,230.73952,-0.3671,-0.852,-0.0083,0.232,0.049,0.425,-21.01,-28.778,-16.015,26
0.5362,-0.553,-0.3419,0.5382,14.230937,-98.16974,202.4029,207.64822,-0.0336,-0.7749,-0.0473,0.191,-1.988,2.101,-10.778,2.85,13.585,23
0.7365,-0.4274,0.4374,-0.2888,21.627213,-61.993988,215.2307,175.97922,-0.2631,-1.0346,0.1279,-0.096,0.271,0.474,-26.284,23.373,10.925,44
0.4396,-0.1174,0.7856,-0.419,15.397067,-50.051598,257.52994,167.05196,-0.5952,-1.1523,-0.2612,0.12,0.28,-0.067,28.66,20.13,-3.163,13
0.7245,-0.6661,0.146,0.0992,14.94862,-78.6113,215.63255,214.40744,-0.4458,-1.0893,0.2192,-0.43,-0.674,0.284,-25.96,16.958,-12.715,26
0.5031,-0.7639,0.2147,-0.3423,4.118157,-113.64633,134.97546,176.8596,0.3315,-0.8852,-0.2636,0.619,-0.083,0.099,-1.05,0.914,6.313,39
0.4672,-0.405,-0.5486,0.5626,10.888478,-87.416626,173.90907,188.95587,-0.0063,-1.1787,-0.0522,-0.15,-0.189,-0.054,17.851,9.717,30.519,16
0.6327,-0.5409,0.2737,-0.4817,36.238773,-86.90454,164.26462,143.49503,0.2172,-1.0893,0.4482,-0.222,0.67,0.017,9.299,-24.587,-16.037,39
0.4731,-0.0916,0.7893,-0.3802,19.304468,-43.8316,265.17517,165.5208,-0.5107,-1.1391,-0.3237,0.067,0.287,0.008,-29.976,23.73,4.936,13
0.1518,-0.1499,-0.6302,0.7464,26.446144,-99.07538,183.20311,185.13348,-0.0034,-0.8608,0.0776,-0.344,-1.23,0.409,-13.487,0.463,-6.9,40
0.6313,-0.5746,0.3434,-0.3912,38.14678,-87.545845,178.33911,169.0182,-0.1093,-1.3842,0.0664,-0.02,0.693,0.744,11.399,-27.737,-25.637,3
0.3933,-0.354,0.5253,-0.6662,25.60794,-96.41166,174.40718,159.9666,-0.3623,-1.4277,0.1416,0.053,-0.412,0.695,-4.65,22.499,17.099,47
0.7125,-0.6681,0.1173,-0.179,16.691376,-87.00206,172.36469,169.2259,-0.103,-1.2612,0.0659,-0.06,-0.046,-0.259,14.399,-11.987,-25.487,19
0.6333,-0.5611,0.283,-0.4515,8.087211,-88.299706,166.03027,150.39638,0.227,-0.9516,0.2661,-0.177,-0.313,0.261,15.149,-5.087,21.149,21
0.54,-0.3697,0.5009,-0.5661,11.035463,-82.0133,191.41968,154.95132,0.1093,-1.2958,0.3002,0.278,0.864,0.023,-13.5,6.599,21.749,42
0.2607,-0.1223,0.6574,-0.6962,19.429947,-87.62905,197.73824,157.14418,-0.2431,-1.0571,0.1328,-0.244,-0.906,0.084,10.349,0.313,5.699,38
0.7233,-0.6608,0.1073,0.1689,9.545432,-77.93891,217.86198,219.70886,-0.229,-1.2148,0.0097,0.156,-0.71,0.766,0.589,14.408,-10.465,26
0.32,0.0617,0.6483,-0.688,18.174517,-72.267784,226.92715,127.078156,-0.5917,-1.1577,0.0512,0.49,0.393,-0.668,28.06,3.624,13.276,11
0.6616,-0.5245,0.3842,-0.3732,13.022829,-79.74438,191.56747,171.13034,-0.1391,-0.9941,0.0903,0.528,0.012,0.878,-1.084,5.823,-11.724,44
0.046,-0.0132,0.7468,-0.6632,19.79993,-83.029335,186.62994,175.77516,-0.0126,-1.3715,-0.3681,-0.233,-1.554,-0.952,27.749,-31.037,-21.887,10
0.3578,-0.297,0.6518,-0.5989,21.201866,-83.82586,192.97397,175.71115,-0.2197,-0.6577,-0.0346,0.632,1.683,-0.703,28.262,20.589,-10.881,34
0.3153,-0.0284,0.6669,-0.6744,10.945446,-76.90951,218.0525,140.81342,-0.3491,-0.5498,-0.0371,0.584,-0.801,0.38,32.41,-18.876,3.226,11
0.0675,-0.1595,0.573,-0.801,27.557154,-109.01462,164.30087,192.79556,0.2861,-1.0581,0.3583,-0.455,-0.92,0.176,-3.6,-20.087,-32.537,25
0.2293,-0.1645,-0.5839,0.7611,6.631674,-100.45999,178.42458,202.55411,0.3271,-0.6879,0.4624,-0.177,0.211,0.192,-10.566,28.411,-14.518,18
0.5767,-0.3881,0.5656,-0.4435,15.560153,-71.98514,212.45798,173.63896,0.0961,-0.7622,-0.0087,-0.241,-0.598,0.544,-19.437,29.739,2.918,34
0.5647,-0.3504,0.5067,-0.549,8.183789,-77.733284,197.19173,154.07982,-0.1718,-1.0156,0.2216,0.06,0.049,-0.269,-26.55,-8.987,23.399,47
0.4584,-0.3004,-0.5174,0.657,0.68589145,-87.4288,172.9003,213.924,0.0986,-0.9511,0.2773,0.029,-0.071,-0.006,27.449,-2.537,29.699,36
0.7004,-0.5104,0.3327,-0.3715,6.6339884,-76.70534,187.9012,162.90099,-0.0332,-0.9975,0.2202,-0.022,0.399,-0.486,5.399,31.199,-9.287,21
0.1724,-0.2549,0.5756,-0.7575,13.566083,-106.04264,162.3217,185.11539,0.0546,-0.624,0.2104,0.348,0.852,-0.6,24.449,-8.837,28.799,25
0.3256,-0.3045,0.5777,-0.6837,18.468948,-96.34428,175.98766,167.87549,-0.0971,-1.1679,0.0415,0.215,-1.4,0.379,-9.3,26.099,-6.287,24
0.7611,-0.552,-0.0339,0.3386,9.666012,-69.0246,206.14124,224.75996,-0.1401,-0.851,0.2114,0.488,0.211,0.594,30.92,-11.066,4.249,15
0.6303,-0.6817,0.1511,-0.3391,10.132695,-95.81071,150.27888,150.46829,0.7338,-1.604,-0.0893,0.349,-1.205,2.085,-13.35,-23.837,-16.337,17
0.7328,-0.6651,0.119,-0.0795,7.40668,-84.02588,187.2305,184.34103,-0.0878,-0.9648,0.1572,-0.041,-0.542,0.069,6.299,19.063,-24.437,19
0.4717,-0.0983,0.7891,-0.3806,20.036028,-44.317745,264.6914,166.24243,-0.6201,-1.0913,-0.5239,-0.26,3.442,0.563,9.91,28.83,3.436,13
0.3868,-0.3328,-0.4799,0.7135,8.9955225,-99.71766,188.99774,214.03267,-0.1093,-0.8969,0.3041,-0.103,0.637,0.257,-17.929,-4.513,-19.349,22
0.0092,-0.2868,-0.62,0.7301,53.64487,-94.505295,221.81985,132.02103,-0.3198,-0.6132,-0.1328,1.527,0.706,-0.102,-21.137,-1.487,-29.237,29
0.5477,-0.4082,0.4206,-0.597,19.715057,-86.84817,177.67268,143.92603,-0.0302,-0.7333,0.2373,0.494,1.568,-0.615,-14.723,-31.197,-9.458,4
0.5555,-0.357,0.4644,-0.5901,7.368541,-81.44689,188.23967,145.65427,0.1547,-0.8408,0.1196,1.076,-1.047,1.376,-9.75,17.549,22.199,47
0.7272,-0.6601,0.1332,0.1325,12.894366,-77.433655,217.28484,217.26419,-0.4365,-0.7368,0.1269,0.052,0.196,-0.455,-21.31,-18.878,-20.065,26
0.6641,-0.3302,0.625,-0.243,20.447723,-48.039383,247.60806,186.19421,-0.6826,-0.8574,-0.1123,-0.771,-0.978,0.255,10.349,-0.887,4.949,48
0.6735,-0.5787,0.3405,-0.3088,3.0229506,-81.96721,190.53764,177.80127,-0.1406,-0.9809,0.1611,0.119,0.607,-0.073,8.965,28.023,-25.974,44
0.6969,-0.6028,0.2749,-0.2741,8.176868,-82.81598,185.38036,174.8357,-0.0083,-0.8051,-0.0053,-0.151,-0.292,0.019,21.599,-9.137,31.199,8
0.6553,-0.545,0.3025,-0.4265,4.2390313,-84.69523,173.59325,155.18106,0.0649,-0.9814,0.2343,0.006,0.111,-0.1,19.649,-3.887,17.249,21
0.3741,-0.2191,-0.596,0.6757,27.976578,-87.08153,165.68329,207.72461,-0.0419,-0.9355,0.2075,0.209,-0.267,-0.86,8.849,27.149,25.649,41
0.0858,0.0192,-0.65,0.7547,12.7703,-96.4507,166.11317,200.37132,0.0205,-0.8554,0.4497,0.937,-1.215,-0.365,-24.6,-32.687,-2.837,10
0.6636,-0.3453,0.6133,-0.2533,19.656717,-50.368313,244.693,186.12477,-0.517,-0.8383,0.0146,0.3,0.457,-0.394,24.149,11.999,25.499,48
0.3676,-0.0861,0.6196,-0.688,5.123963,-78.94369,210.96213,137.9379,-0.2275,-0.9638,0.2573,-0.051,0.743,-0.445,2.527,-6.716,-20.114,35
0.1417,-0.0976,-0.5955,0.7846,12.939105,-103.61756,178.59302,196.1189,-0.0917,-0.7094,0.2426,-0.239,-0.23,-0.43,1.799,22.049,-24.137,7
0.6665,-0.6698,0.1828,-0.2713,6.6668906,-91.738,166.80742,166.06253,-0.2041,-1.1005,0.0307,0.444,1.384,-0.307,22.949,-1.187,29.849,17
0.201,-0.1925,-0.6168,0.7361,5.7510033,-98.86098,183.48688,187.94414,-0.2485,-1.2573,0.2573,-0.72,-1.667,0.21,-25.87,-0.596,0.511,18
0.3738,-0.3456,-0.5221,0.6841,2.042838,-98.49172,187.76881,200.69374,-0.1162,-1.0151,0.2226,-0.033,-0.042,-0.328,-25.937,-2.537,-31.787,46
0.1844,-0.4456,-0.5357,0.693,20.733387,-106.3337,224.42964,141.87329,-0.2939,-1.1372,-0.2514,-0.674,0.23,0.318,27.89,-15.537,27.989,12
0.7188,-0.6682,0.1302,0.1406,11.260504,-78.46626,218.5386,218.82745,-0.2978,-1.1943,-0.0375,-0.121,-0.988,0.722,-25.96,16.958,-12.715,26
0.4153,-0.3715,0.5016,-0.6616,13.96619,-96.59226,172.97209,156.44562,-0.2255,-0.9926,0.1962,0.177,0.249,-0.569,-5.25,-21.437,-2.55,42
0.6813,-0.59,0.329,-0.2816,2.1035028,-81.65937,192.18408,180.45161,-0.0375,-1.0019,0.0507,0.086,0.174,-0.155,11.215,30.423,-24.924,44
0.3112,-0.1083,-0.6372,0.6966,45.46482,-84.678055,156.16461,212.7519,0.0356,-0.9013,0.1523,-0.071,0.935,-0.931,-15.737,-2.237,7.349,40
0.4588,-0.3015,-0.5171,0.6566,0.5467335,-87.46241,172.99335,213.83258,0.0986,-0.9594,0.2822,0.023,-0.103,-0.005,27.449,-2.537,29.699,36
0.6299,-0.4191,0.4307,-0.4919,6.261313,-77.1645,191.64648,154.9524,-0.145,-1.0332,0.1357,-0.089,-0.739,0.083,-19.783,1.709,-9.542,4
0.3034,-0.2677,0.6406,-0.6524,28.870062,-89.546326,184.36096,173.97296,-0.3627,-0.7045,-0.1098,0.207,0.788,-0.159,-15.087,10.239,-1.881,34
0.3342,-0.3006,-0.568,0.6893,24.824183,-96.59398,183.39247,195.63359,-0.229,-1.1186,0.1879,-0.298,-0.361,0.081,-18.587,-3.137,-11.25,41
0.7501,-0.658,0.0439,0.048,8.068786,-81.706245,193.02902,193.11331,-0.0356,-0.6982,-0.0263,0.061,0.342,0.216,5.849,-17.837,-26.387,14
0.6029,-0.617,0.2084,-0.4606,21.3301,-94.39647,149.20224,139.74991,-0.0161,-1.1191,0.2255,-0.382,0.461,-0.241,-10.8,17.249,-3.287,9
0.3991,-0.1092,0.603,-0.6819,9.221021,-77.94777,209.81522,136.93799,-0.0014,-0.9672,0.1186,0.113,0.418,0.406,-4.972,-9.566,-16.664,35
0.1858,-0.0977,0.7093,-0.6728,24.040993,-85.009995,195.44292,168.16855,-0.1606,-1.2231,-0.102,-0.098,-0.941,0.62,-27.276,1.824,-5.924,11
0.2975,-0.3338,0.5527,-0.7032,22.004328,-102.05504,166.2485,172.82219,-0.0766,-0.6884,0.2158,0.153,0.374,-0.19,16.349,-9.287,22.949,24
0.7766,-0.5736,-0.0293,0.2585,12.063047,-71.32292,201.22433,213.87741,-0.2778,-0.7866,0.3237,-0.185,0.255,-1.02,20.72,-13.316,22.399,15
0.6978,-0.5432,0.3335,-0.3264,13.063965,-78.23739,190.6693,171.08958,-0.1889,-1.1757,-0.2148,0.37,-1.019,3.703,2.549,-16.337,-24.887,31
0.5998,-0.6163,0.1353,-0.4919,30.750282,-90.38613,139.4972,121.51637,-0.2758,-0.9467,0.1513,-0.752,2.004,-0.838,10.349,-16.187,-30.587,17
0.5603,-0.6874,0.1326,-0.4424,8.890195,-100.86969,131.45746,129.39456,0.5615,-1.0073,-0.0561,1.23,-0.754,0.854,-14.018,10.625,-13.427,5
0.3139,-0.1502,0.6447,-0.6805,28.612574,-85.32011,200.22406,154.40887,-0.6025,-1.2709,0.1,-0.386,0.354,-0.658,25.241,-21.432,-15.937,13
0.6716,-0.3424,0.6032,-0.2599,19.573305,-50.741287,242.73041,184.49571,-0.5322,-0.8393,0.0258,0.47,0.391,-0.287,29.849,10.063,0.449,48
0.1507,-0.2041,-0.6114,0.7494,0.85545653,-101.89237,191.88379,176.57584,-0.1508,-1.0141,0.1708,0.014,-0.102,-0.044,-22.637,-0.587,-15.15,41
0.6853,-0.705,0.0501,0.175,0.18192305,-87.328995,214.99516,216.40312,-0.3208,-0.9648,-0.0058,-0.002,-0.02,0,27.331,-14.84,25.643,26
0.7565,-0.556,-0.0231,0.3432,9.965423,-68.983444,208.2013,226.61508,-0.3017,-0.9682,0.2563,0.089,0.083,-0.166,-25.766,-17.216,-8.051,15
0.319,-0.0804,0.6595,-0.6758,11.722237,-80.09448,211.22273,146.29892,-0.3305,-1.1206,0.1547,0.165,0.241,-0.663,18.292,-16.032,-30.469,45
0.8144,-0.5457,0.1896,0.0545,15.59631,-62.549286,210.90292,203.87938,-0.1831,-0.8022,0.184,0.419,0.023,0.431,25.799,-16.487,8.699,50
0.4856,-0.433,-0.4917,0.5786,19.127876,-91.44944,182.3623,196.22185,0.0439,-1.0625,0.0625,0.553,-2.633,0.725,20.399,26.849,13.363,46
0.4842,-0.3705,-0.4832,0.6282,9.266193,-89.82988,179.77824,209.94672,0.1889,-1.0083,0.0737,0.166,-0.284,0.664,-30.587,-20.087,-16.187,36
0.6257,-0.4032,0.4925,-0.4507,5.2426276,-73.119255,204.0078,165.00856,-0.0537,-0.7919,0.4477,-0.043,-0.304,-1.43,27.749,-31.487,-25.037,30
0.4463,-0.3567,0.6403,-0.5132,4.461352,-77.372665,205.03796,179.87845,-0.2597,-0.9887,-0.0771,0.103,0.103,0.012,-6.687,-3.697,-7.581,34
0.5912,-0.4446,0.4891,-0.4619,16.219189,-79.1481,196.93504,169.20589,0.0751,-0.8525,0.1381,0.01,-0.385,0.538,-27.137,-23.837,-19.337,32
0.1853,-0.0851,0.6135,-0.7628,19.231073,-98.03169,189.05013,155.51006,-0.3041,-0.8242,0.1918,0.358,-0.125,-0.338,11.392,-25.632,32.067,45
0.4392,-0.4088,0.3863,-0.7004,6.2063947,-100.637276,160.62685,132.73651,0.5356,-0.9096,0.477,0.234,-0.33,0.093,26.099,-25.187,-12.887,43
0.0338,-0.1702,0.7022,-0.6904,4.950447,-88.507576,157.79257,202.02477,0.0483,-0.955,-0.1567,0.1,-0.196,0.046,16.649,-2.837,-29.537,10
0.6472,-0.5387,0.2616,-0.4715,36.30901,-85.094826,164.95142,142.75026,0.1445,-0.8696,0.4345,-0.47,-0.011,-0.41,11.849,-26.837,-20.687,39
0.5069,-0.3767,0.5147,-0.5797,23.03553,-85.28387,188.20416,158.3128,-0.4775,-0.8095,0.1484,-0.16,-0.008,-0.711,16.049,-17.837,31.949,30
0.2066,-0.1123,0.6305,-0.7396,14.009832,-95.098854,189.15341,158.89749,-0.1098,-0.9438,0.1381,-0.26,-1.538,0.651,22.894,15.446,7.354,45
0.073,0.1194,0.6836,-0.7162,0.16950554,-88.778564,209.28642,148.36378,-0.2734,-0.9702,0.0429,0.017,-0.004,-0.02,-11.087,3.463,-12.75,40
0.6061,-0.5035,0.3555,-0.5026,16.45066,-87.04452,173.06041,151.44806,0.0029,-0.9897,0.3256,-0.065,-0.173,-0.011,-15.75,6.613,-23.087,21
0.5251,-0.3136,0.5105,-0.6043,10.984807,-80.501686,193.97559,147.3236,-0.1201,-1.3657,0.2705,-0.036,1.219,0.079,27.736,-14.087,11.549,42
0.0326,-0.0554,-0.6255,0.7775,20.430527,-102.40642,184.29013,177.28224,-0.0283,-0.9536,0.4189,-0.898,0.169,0.078,-12.67,11.404,-3.688,18
0.0103,0.1007,0.5658,-0.8182,12.811804,-109.4326,195.01204,156.91383,-0.2451,-1.1503,0.2431,0.358,0.862,-0.441,26.399,-28.937,26.849,7
0.6764,-0.5061,0.3424,-0.4109,7.0284452,-79.16777,184.3234,159.36266,-0.0136,-0.978,0.2041,-0.012,0.196,-0.577,-9.75,7.213,-20.387,21
0.213,-0.3782,-0.5616,0.7043,14.81292,-104.879005,210.33066,160.37947,-0.039,-0.6865,-0.0063,0.238,1.871,1.955,27.89,-15.537,27.989,12
0.2004,-0.1618,-0.6079,0.751,3.2374957,-99.62651,179.94093,194.50589,0.2636,-0.8354,0.2509,1.678,0.117,0.266,-1.55,-13.916,-15.325,18
0.5837,-0.6339,0.1687,-0.4783,11.937604,-95.78101,140.45345,129.97447,0.496,-0.8837,0.1889,0.282,-0.176,0.417,0.982,-24.011,23.759,5
0.1943,-0.2123,-0.6039,0.7432,5.814933,-101.16834,187.84149,184.60904,-0.0737,-0.9775,0.1464,0.019,0.116,-0.053,20.999,23.563,3.599,41
0.6424,-0.3242,0.621,-0.3104,24.890461,-53.343945,240.74219,180.27664,-0.7553,-1.0996,0.1049,-0.417,-0.46,0.152,7.349,7.499,31.649,48
0.5137,-0.3713,-0.518,0.5742,21.400593,-84.01608,169.81543,201.83015,-0.1577,-1.1738,0.2944,-0.336,-0.059,-0.193,-15.979,20.223,-7.949,22
0.6619,-0.5802,0.3429,-0.3278,6.599423,-83.523186,187.71283,176.28528,-0.5092,-0.8393,0.1386,0.05,-0.273,0.701,24.899,-0.737,22.049,31
0.6736,-0.3376,0.6227,-0.2108,19.539536,-46.035423,249.91655,189.27086,-0.7915,-0.9233,-0.0087,0.539,0.734,-0.151,-15.45,8.549,31.049,48
0.6256,-0.4575,0.4207,-0.4712,11.26899,-79.98445,188.87743,159.5907,-0.0566,-1.1962,0.1625,0.402,0.743,-0.405,19.649,-25.337,31.649,32
0.5955,-0.4457,0.3899,-0.5426,5.927445,-84.16587,178.29611,147.15277,-0.0659,-1.0019,0.1811,-0.096,-0.431,0.944,-3.988,-31.434,-25.886,4
0.0935,-0.0184,-0.5494,0.83,7.3615828,-110.44951,174.07617,204.52182,0.0253,-0.7924,0.5292,-0.61,0.409,-1.137,-13.487,-1.637,-26.987,49
0.1897,-0.134,-0.6199,0.7494,2.0261793,-98.20417,176.70738,196.00818,0.0493,-0.9252,0.1723,-0.117,-0.953,-0.109,-3.557,-16.749,-26.007,18
0.369,-0.2504,-0.5828,0.6792,9.168386,-90.12186,171.38908,204.81758,0.1616,-1.2724,0.1459,-0.109,0.044,-0.402,-11.779,-29.113,-23.849,22
0.5472,-0.5298,-0.4077,0.5035,9.257274,-93.05804,189.02956,194.5673,-0.1577,-1.0976,0.1567,0.143,0.66,-0.486,3.05,-24.933,-20.172,23
0.745,-0.593,0.2928,-0.0859,0.13786283,-71.37847,213.11342,199.41882,-0.3955,-0.9072,0.0864,0.047,0.143,0.004,13.949,-10.187,14.849,3
0.4828,-0.4019,0.4986,-0.5971,9.540826,-90.24527,180.14568,159.31866,0.0463,-1.3994,0.2431,0.348,1.286,-0.162,-6.75,-30.737,2.549,42
0.5718,-0.3566,0.602,-0.4282,13.779506,-67.57164,221.14378,174.98781,-0.2065,-1.1279,-0.0756,-0.251,1.71,-0.165,-2.637,10.539,-3.231,34
0.3055,-0.2332,0.6032,-0.6988,8.723715,-93.573814,184.19788,161.90053,0.0058,-1.0043,0.3012,0.2,0.158,-0.454,-13.187,0.914,-11.1,38
0.1312,-0.0141,0.706,-0.6957,31.462357,-86.72601,198.765,162.0758,-0.6757,-1.2758,0.0249,0.222,0.476,0.655,24.46,-7.176,5.926,11
0.6719,-0.58,0.2525,-0.385,4.3924155,-85.440704,169.77615,155.42157,0.0068,-0.9399,0.2446,-0.037,-0.075,-0.102,6.299,-5.387,19.649,27
0.6966,-0.5911,0.3168,-0.2548,19.50279,-80.117485,194.51631,181.91096,0.0898,-0.9116,0.0327,0.196,-0.826,0.722,26.536,-15.587,0.463,3
0.7122,-0.6685,0.1163,-0.1795,16.706772,-87.06023,172.11734,169.01082,-0.0859,-1.3168,0.0615,-0.063,-0.089,-0.224,14.399,-11.987,-25.487,19
0.7438,-0.5932,-0.0835,0.2962,3.5959914,-77.01159,200.10016,213.9079,-0.2309,-0.9853,0.3325,-0.022,0.022,-0.298,-22.766,28.384,-4.001,15
0.6192,-0.6068,0.2071,-0.4531,19.825142,-91.98612,152.01405,140.06384,-0.0068,-0.8007,0.2993,-0.261,0.471,-0.648,18.749,-20.537,-29.237,9
0.4503,-0.0386,0.766,-0.457,18.726517,-48.857113,256.97833,154.83601,-0.5234,-1.2294,-0.2084,0.741,1.281,-0.181,-1.339,-2.219,14.386,13
0.7175,-0.4668,0.2671,-0.4425,46.11164,-72.582504,177.59523,143.58313,0.2207,-0.8242,0.372,-0.502,-0.012,-0.791,21.149,29.849,-11.987,39
0.7001,-0.5737,0.3232,-0.2758,20.64046,-79.06837,193.70572,178.52235,-0.0317,-0.9809,0.0483,0.436,-1.107,1.148,-6.9,-25.937,-25.337,3
0.7056,-0.5125,0.3302,-0.3609,7.782145,-76.22608,188.74498,163.97614,-0.0957,-0.916,0.1269,0.139,-0.099,0.215,11.699,31.199,-11.837,21
0.7749,-0.5257,0.0415,0.3483,18.416538,-60.842686,213.21265,231.69298,-0.4501,-1.1054,0.4091,-0.052,0.139,-0.235,21.77,-14.816,21.349,15
0.0808,-0.328,-0.6043,0.7215,61.676632,-98.692566,219.22623,138.74661,-0.705,-1.0922,-0.2426,0.127,0.612,-0.583,-26.537,-23.537,-19.787,29
0.3293,-0.1177,0.6433,-0.6809,2.0587547,-82.57206,205.92877,148.25471,-0.2661,-0.9687,0.1435,0.002,-0.014,-0.023,12.048,-30.745,-24.568,35
0.6361,-0.3889,0.5069,-0.4323,24.47639,-70.00909,209.24385,166.57678,-0.0917,-1.0942,0.1093,0.059,-0.486,0.514,-8.4,-7.187,-9.287,28
0.1073,-0.0237,0.7062,-0.6993,18.682827,-88.052826,193.4909,166.96356,-0.0161,-0.8759,-0.101,-0.427,1.318,0.618,7.799,-9.587,-16.787,10
0.6505,-0.4139,0.4137,-0.4839,6.341914,-75.03499,191.95511,152.84177,-0.1484,-1.2153,0.3481,0.079,0.319,-0.775,-10.373,15.439,-10.358,4
0.5991,-0.4609,0.4025,-0.5163,4.0482206,-84.21554,180.58168,153.2623,-0.0039,-0.83,0.0893,-0.027,0.131,-0.135,-19.783,2.759,-11.342,4
0.4274,-0.3051,-0.5427,0.6554,35.684925,-89.45302,174.01822,206.99457,-0.0644,-0.8681,0.2041,-0.401,-1.627,0.901,-8.4,-8.987,10.799,41
0.8205,-0.494,-0.0508,0.2829,23.962835,-61.403748,194.83601,214.06375,-0.1171,-1.0058,0.3564,0.306,0.048,0.243,-1.65,-19.937,18.599,6
0.7023,-0.5823,0.3075,-0.2702,4.110561,-79.8565,191.82108,177.91338,0.0239,-1.1142,0.2871,0.017,0.205,-0.541,27.149,-7.187,17.699,8
0.0505,-0.0207,-0.5771,0.8147,3.353363,-108.87882,177.88838,189.9443,0.3627,-1.0195,0.3027,0.624,-0.149,1.376,20.399,-29.537,13.813,49
0.3961,-0.3355,0.6292,-0.5784,13.64319,-83.86533,192.81125,176.26837,-0.1137,-0.6147,-0.0693,0.652,1.279,-0.891,20.312,-14.647,-18.381,34
0.6191,-0.6769,0.2176,-0.3332,13.001831,-97.03282,159.17653,164.39972,0.1997,-0.9267,-0.0878,-0.134,0.449,0.328,-5.139,20.567,21.064,20
0.8006,-0.5646,0.0968,-0.1757,18.614393,-71.12849,176.29964,164.93167,-0.083,-0.8769,0.394,-0.06,0.185,-0.384,-8.55,12.613,14.399,50
0.3054,-0.1077,-0.6379,0.6986,44.79504,-85.16864,156.75282,212.2591,0.0473,-0.8593,0.1762,0.042,0.811,-0.981,-15.737,-2.237,7.349,40
0.5311,-0.4067,0.4115,-0.6188,19.49303,-88.94889,174.29765,140.6758,-0.0048,-0.875,0.3154,0.314,0.961,-0.495,-16.183,4.095,9.357,4
0.3294,-0.1167,0.6437,-0.6807,1.9493757,-82.475784,206.10909,148.16678,-0.2695,-0.9677,0.1503,-0.007,-0.037,-0.014,13.698,-31.045,-25.168,35
0.7818,-0.6131,-0.0677,0.0903,4.3537498,-76.435814,180.45052,185.4092,0.0512,-1.0058,0.1645,0.247,-0.387,0.438,30.286,1.213,-17.987,6
0.5813,-0.6344,0.2972,-0.4136,27.194296,-97.74081,160.0263,166.12009,-0.0722,-1.3789,0.0087,-0.644,0.145,-0.303,-4.089,27.617,20.464,20
0.7813,-0.5794,-0.044,0.2276,13.692209,-72.501274,196.74994,207.93839,-0.414,-0.7626,0.2529,-0.224,0.013,-0.986,12.17,-10.916,27.349,15
0.6219,-0.6464,0.2432,-0.369,18.417442,-94.85682,161.04933,161.58607,0.0844,-1.3544,-0.0053,-0.328,-0.111,0.162,-11.889,-30.569,-6.385,20
0.2305,-0.0567,0.6133,-0.7533,16.787266,-92.95618,198.06511,144.14876,-0.4541,-0.8378,0.1362,0.053,-0.001,-0.507,27.749,-9.587,23.399,33
0.6241,-0.6086,0.2216,-0.4369,27.977457,-92.06773,155.20161,145.11621,0.228,-0.9511,0.1743,0.623,0.817,0.235,4.949,-3.587,-18.137,39
0.6319,-0.5751,0.3199,-0.4093,15.75353,-88.53336,173.28702,163.06871,-0.0727,-1.1069,0.2094,-0.043,0.383,-0.237,7.165,28.473,-24.174,44
0.6476,-0.5899,0.1951,-0.4409,12.48836,-87.587944,155.41518,139.13107,0.3662,-0.9057,-0.0053,0.14,0.331,0.268,-5.468,28.325,-26.777,5
0.2531,-0.3121,-0.5523,0.7303,18.556622,-105.12047,196.78563,183.86884,-0.1049,-1.0878,0.1132,0.192,-0.09,-0.747,-32.087,22.513,1.799,41
0.4723,-0.3303,-0.6371,0.5116,4.1457324,-74.85406,149.5553,185.67871,0.2041,-1.2109,-0.0898,0.116,-0.194,-0.143,-16.185,-27.169,1.719,16
0.5421,-0.3337,0.4981,-0.5887,12.024073,-80.19116,193.1063,148.48723,0.0317,-1.0112,0.228,0.226,0.706,-0.126,27.736,-14.087,11.549,42
0.3702,-0.3186,0.6292,-0.6045,18.135897,-86.097145,189.17926,174.98839,-0.1943,-0.5566,-0.0605,0.444,1.536,-0.338,20.312,-14.647,-18.381,34
0.4743,-0.3703,0.3907,-0.6964,6.0846505,-93.55483,168.32722,127.64383,0.2338,-1.1284,0.4326,-0.077,-0.043,0.122,22.499,-8.837,-18.587,43
0.8133,-0.5559,0.1577,0.0666,13.4109955,-64.43228,207.87921,203.35196,-0.2031,-0.7729,0.2343,0.29,0.012,0.234,-30.287,-4.337,-5.7,50
0.4719,-0.3369,-0.4713,0.6644,6.976029,-90.13994,180.24672,218.3653,0.2958,-0.6997,0.3041,0.184,0.524,0.429,25.799,-6.137,-26.237,36
0.594,-0.4242,0.4597,-0.5057,18.436625,-80.33553,190.9898,158.83899,-0.2304,-0.7036,0.1616,-0.209,0.278,-0.042,-23.687,-12.887,-30.437,32
0.6616,-0.3288,0.6187,-0.267,22.253405,-49.990337,244.56198,183.73895,-0.6586,-0.5375,-0.0258,0.64,0.392,-0.331,-9.3,-15.887,19.499,48
0.2059,-0.5188,0.4736,-0.6811,26.595211,-112.52234,126.38306,223.15335,0.6562,-1.1459,-0.0869,0.255,-3.196,0.242,-19.05,13.649,-8.537,1
0.151,-0.1839,-0.6714,0.7017,26.863483,-92.942795,186.14674,175.76413,-0.1215,-1.0097,-0.0117,0.414,-0.12,-0.022,23.249,28.664,9.149,40
0.679,-0.5555,0.2895,-0.3825,3.972993,-82.767136,176.99919,159.42361,0.0463,-1.1552,0.2294,-0.011,1.186,-0.454,8.549,-22.637,29.549,27
0.3952,-0.3787,0.4151,-0.7266,12.475485,-103.89149,161.54926,136.83163,0.247,-0.8925,0.3759,0.045,-0.297,0.016,-0.45,12.164,-14.537,43
0.772,-0.6099,0.1656,-0.0673,22.53628,-75.24783,196.4489,188.99646,-0.2221,-0.9609,0.2456,0.266,0.427,-1.171,19.499,2.863,13.199,37
0.3017,-0.1061,0.6368,-0.7014,1.8708241,-85.58875,202.82901,147.64459,-0.3305,-1.0869,0.0048,-0.222,-1.683,0.821,-6.15,28.949,-8.537,33
0.15,-0.1817,-0.6682,0.7056,26.688095,-93.489655,186.15503,176.19661,-0.081,-0.936,-0.0063,0.301,-0.141,0.032,23.249,28.664,9.149,40
0.3648,-0.2849,0.6415,-0.6116,18.643959,-84.527145,193.44453,171.52565,-0.0712,-1.0693,0.1357,0.041,-0.422,0.33,24.362,-14.197,-18.381,34
0.372,-0.3189,-0.5449,0.6803,0.1829908,-95.75816,182.71466,200.64984,0.0102,-0.9868,0.1674,0.275,0.128,0.059,-5.029,-23.113,-24.749,22
0.5206,-0.4561,-0.4255,0.5828,26.475298,-92.44916,188.29811,207.19205,-0.1831,-0.8789,0.3535,-0.153,0.016,-0.083,18.299,18.763,-9.287,46
0.677,-0.478,0.5229,-0.1989,1.9481947,-59.990864,234.9536,197.9072,-0.5825,-0.8256,-0.1284,-0.314,-0.17,0.131,30.449,-26.537,0.299,48
0.132,-0.0675,0.6193,-0.771,25.30443,-100.3762,185.55887,162.98717,-0.2338,-1.4047,0.2846,-0.638,-0.119,0.201,13.342,-24.732,-23.869,45
0.1834,-0.1401,-0.615,0.7539,1.0126923,-99.379524,178.63531,194.42018,-0.0849,-0.8842,0.1987,-0.234,-0.484,-0.103,-3.407,-16.599,-26.907,18
0.1957,-0.0919,0.6243,-0.7505,17.920277,-96.099045,190.10886,156.38062,-0.2558,-0.7714,0.1879,0.311,0.776,-0.336,3.557,15.296,-9.595,45
0.2213,-0.1224,0.6502,-0.7163,23.596584,-91.71482,191.42284,161.002,-0.0649,-0.9975,0.2216,-0.165,0.425,0.117,8.549,-8.537,10.649,38
0.1558,-0.1605,-0.6374,0.7373,5.654438,-97.937675,183.8385,183.3442,0.0585,-1.4614,-0.0136,-0.197,-2.163,0.297,-21.67,5.704,5.311,18
0.7767,-0.6294,0.0174,0.0137,5.481254,-77.947975,184.20186,184.09773,0.0444,-1.0561,0.1987,0.098,0.118,-0.029,4.499,8.713,16.199,37
0.3292,-0.1154,0.644,-0.6807,1.7778634,-82.401665,206.27745,148.0466,-0.269,-0.9667,0.1455,0,-0.001,-0.015,13.698,-31.045,-25.168,35
0.4487,-0.4067,0.5397,-0.5846,4.222691,-90.407585,180.92976,170.06546,0.0317,-0.9072,0.1162,-0.123,-2.045,1.581,-24.45,25.349,-4.337,28
0.407,-0.3014,0.6577,-0.5575,13.4149275,-78.501335,203.62689,174.512,-0.0205,-1.247,0.1064,0.326,0.15,-1.087,-7.437,11.739,-0.081,34
0.178,-0.07,0.6208,-0.7601,20.666073,-97.19008,190.74161,155.1629,-0.1494,-1.0644,0.3066,-0.382,-0.053,0.488,-4.057,24.304,-20.719,45
0.3684,-0.3523,-0.4413,0.7384,14.011406,-104.87511,196.3071,218.85606,-0.2368,-1.2167,0.2651,0.269,-0.088,-0.385,-11.629,-31.513,-12.449,22
0.5764,-0.325,-0.4611,0.591,16.817768,-77.07806,167.65543,218.59833,0.1474,-1.2309,0.2026,0.132,0.352,-0.267,-9.3,29.849,3.914,36
0.7819,-0.597,0.093,-0.1533,15.169149,-75.316444,176.60704,168.1503,-0.1513,-1.3583,0.165,-0.605,-0.461,0.828,3.149,-11.837,15.599,50
0.7562,-0.6512,0.0565,0.027,7.651218,-80.69715,192.02542,191.3634,0,-0.6777,0.0004,0.318,-0.003,0.477,-4.2,25.649,-9.137,14
0.0388,0.0223,0.5302,-0.8466,13.005932,-114.869576,186.2879,162.03586,0.2871,-1.0664,0.3974,-0.243,1.09,-0.19,-26.837,-29.087,7.664,49
0.7282,-0.6227,0.2505,-0.1379,19.189537,-78.65552,199.93703,190.70618,-0.0014,-0.395,0.0693,0.522,-2.366,1.237,-14.7,27.449,-4.637,17
0.6761,-0.5613,0.3277,-0.3468,11.732296,-82.05386,185.33475,169.76912,-0.3051,-0.6313,0.1386,0.066,0.61,-0.237,29.399,-21.287,-28.487,8
0.7708,-0.6234,0.1278,0.0293,35.55223,-75.21172,202.20764,199.01791,0.9448,-1.1113,-0.4624,0.902,-1.157,1.809,15.449,-26.687,-31.037,17
0.6058,-0.5024,0.356,-0.5037,16.748186,-87.00654,173.10484,151.3048,-0.0102,-0.9951,0.3115,-0.034,0.033,-0.042,-15.75,6.613,-23.087,21
0.6526,-0.4497,0.4837,-0.3711,24.621153,-71.22725,209.57507,175.71948,-0.0883,-1.1909,0.0883,-0.457,1.033,-0.36,-28.084,-3.476,16.325,44
0.7738,-0.614,0.1261,-0.0903,20.051943,-76.71795,187.94212,181.4077,-0.186,-1.1269,0.123,0.008,-1.511,2.039,-23.687,0.914,-3.3,37
0.436,-0.323,-0.5389,0.6441,8.672494,-89.49805,174.9049,205.05377,-0.0771,-0.7309,0.2255,-0.19,0.616,0.016,-6.529,-32.263,-22.949,22
0.3737,-0.0921,0.6249,-0.6791,7.1180825,-78.1242,211.76991,139.3777,-0.1059,-0.872,0.1381,-0.05,-0.561,0.737,-20.687,-10.937,23.849,33
0.6589,-0.4485,0.4661,-0.3838,23.298891,-72.007645,206.13847,172.29945,-0.2587,-0.8852,0.2558,0.082,0.068,-1.175,27.115,26.973,-18.774,44
0.1969,-0.165,0.6309,-0.732,24.03302,-96.83002,180.68686,169.52716,-0.2031,-0.7851,0.1743,-0.018,1.414,-0.323,-9.587,-17.987,9.749,38
0.7446,-0.6646,0.0597,-0.0117,3.5272508,-83.12976,187.56761,186.35252,-0.061,-1.352,0.145,-0.258,0.363,-0.354,-11.85,-4.637,-11.237,14
0.5917,-0.4719,0.4146,-0.505,11.412936,-85.119125,181.32727,157.64233,-0.2343,-1.0864,0.1591,-0.186,-1.014,-0.11,-10.8,-22.937,-7.65,47
0.7776,-0.6281,-0.0236,-0.0144,17.233522,-77.71627,174.81342,175.07631,-0.0361,-0.9648,0.3002,-0.177,-0.629,0.164,27.586,-5.837,-21.137,6
0.7711,-0.6174,0.1547,-0.0055,16.64554,-74.67351,202.05756,196.78813,-0.0727,-1.1499,0.288,-0.173,-0.319,-2.004,20.549,-31.337,23.399,37
0.7085,-0.5433,0.2248,-0.39,19.172693,-78.96989,170.8016,148.8157,0.3017,-1.2958,0.2504,-0.011,-1.317,0.194,-27.354,26.525,0.809,5
0.5182,-0.3102,-0.6341,0.4827,9.529467,-69.5149,140.74524,189.11188,0.457,-0.812,-0.0434,0.136,-1.336,0.464,-20.235,32.367,3.669,16
0.7634,-0.4395,0.253,-0.3999,51.317898,-65.77956,182.68172,146.5928,0.1752,-0.8549,0.416,-0.565,0.958,-0.879,11.999,-18.587,-22.037,39
0.5575,-0.3736,0.5998,-0.4355,10.668655,-69.974396,217.8692,176.80421,-0.2587,-1.249,-0.0678,-0.196,2.062,-0.18,8.312,-21.697,-23.931,34
0.2384,-0.1257,0.6122,-0.7433,11.557314,-95.17002,189.85184,153.84854,0.1596,-0.9951,0.3603,0.266,-0.022,-0.048,-25.842,9.896,6.754,45
0.6314,-0.4019,0.4416,-0.4945,9.403743,-75.59005,194.19514,154.42418,-0.1992,-0.7319,0.1181,0.095,-0.15,0.487,31.503,5.895,23.007,4
0.5156,-0.4419,0.4688,-0.5647,19.524609,-89.97061,178.46608,160.37341,-0.0917,-1.3178,0.2363,-0.259,0.333,0.255,29.549,-6.587,24.749,30
0.6991,-0.5885,0.2821,-0.2919,7.155482,-81.84226,185.07451,172.33905,-0.0454,-1.4956,0.1918,-0.018,0.432,0.223,16.649,-25.337,26.999,8
0.4619,-0.3414,0.4952,-0.6517,18.849735,-90.386665,181.12106,147.89272,0.0932,-1.0253,0.249,0.183,-0.139,0.769,18.136,-22.937,27.749,47
0.7953,-0.5721,-0.0213,0.1988,18.276115,-70.51921,196.39223,205.96399,-0.3544,-0.8305,0.3779,0.021,0.363,-0.249,24.17,16.684,5.599,15
0.7374,-0.661,0.1014,0.0947,13.576254,-79.87618,207.91386,207.75049,-0.5751,-0.9174,0.166,-0.046,0.203,-0.157,22.489,-15.728,-31.615,26
0.6886,-0.5797,0.2676,-0.3435,9.033509,-83.336365,177.12544,163.03305,0.0244,-0.8212,0.0097,0.252,-0.118,0.698,13.949,25.949,-20.537,9
0.4556,-0.0941,0.7731,-0.4309,14.743738,-49.549603,256.79883,162.55162,-0.561,-0.8833,-0.1928,1.228,0.845,-0.36,26.279,1.627,9.092,13
0.2947,-0.2745,0.573,-0.7136,24.767591,-98.96902,174.8091,165.4478,-0.0727,-1.3823,0.2944,-0.255,-0.378,0.054,-2.55,26.999,-9.737,24
0.592,-0.6145,-0.3142,0.4159,25.96449,-95.09722,195.14035,193.49303,-0.0722,-0.9565,0.1005,0.091,-2.41,0.639,26.558,-24.586,-1.714,23
0.1109,-0.2021,-0.651,0.7231,22.754814,-96.63445,195.73303,166.56233,0.2148,-0.9096,0.0297,0.029,-1.269,1.165,1.199,-5.087,12.299,40
0.2606,-0.1443,0.6136,-0.7312,6.6953573,-93.68303,190.31592,154.14536,0.0751,-0.9711,0.0278,0.227,-1.924,1.407,-15.942,7.946,1.354,45
0.5195,-0.4059,0.518,-0.5448,17.991089,-84.471436,189.67642,164.60014,-0.0302,-0.935,0.3359,0.115,-0.215,0.39,-28.337,-4.337,-28.037,30
0.2701,-0.2095,-0.5699,0.7471,13.370031,-99.799736,180.4698,203.4082,-0.1538,-1.0317,0.2202,-0.306,0.508,-0.095,-32.62,-11.096,4.561,18
0.7819,-0.5546,0.2607,0.1135,29.873375,-58.717487,226.28125,217.91206,-0.2421,-0.7763,0.1948,0.262,0.218,1.072,18.749,-7.337,17.999,37
0.6562,-0.5582,0.2984,-0.4105,5.6235743,-85.3976,173.63133,157.61877,-0.0097,-0.8027,0.2719,-0.076,0.121,-0.493,26.849,-13.337,23.849,27
0.0485,-0.305,-0.5961,0.741,59.481663,-99.52476,219.33597,135.62679,-0.3896,-0.8486,-0.1987,0.978,1.284,-0.37,-21.137,-1.487,-29.237,29
0.2725,-0.3329,-0.6349,0.6416,0.5849325,-92.26589,189.54745,171.2497,-0.1372,-0.996,-0.0478,-0.021,0.157,-0.12,28.34,-11.037,22.739,12
0.6402,-0.5539,0.3116,-0.4313,8.689045,-86.76574,172.43202,156.91693,0.0039,-0.8237,0.2666,-0.126,0.105,-0.391,2.999,-6.587,-31.937,27
0.557,-0.3672,0.5503,-0.5019,12.92431,-75.76071,204.53194,165.59296,-0.225,-1.0507,0.1503,-0.3,1.782,-1.703,2.549,27.749,-11.837,28
0.7774,-0.5911,-0.0838,0.1977,15.176461,-75.023926,189.19022,199.33696,-0.289,-0.8745,0.3603,-0.279,-0.039,-0.43,12.17,-10.916,27.349,15
0.556,-0.3584,0.4842,-0.5725,13.888001,-80.53022,191.4821,150.17328,0.082,-0.8852,0.0781,0.277,0.333,0.201,18.586,-20.087,22.349,42
0.6157,-0.4962,0.4384,-0.4271,8.645368,-81.37935,191.794,170.90619,-0.2226,-0.9746,0.0317,0.038,-0.859,-0.416,32.699,0.463,18.449,30
0.621,-0.5678,0.3364,-0.4227,17.180449,-88.95558,173.69019,163.68784,0.1069,-0.7504,0.2333,0.25,-0.406,-0.097,6.265,29.073,-22.824,44
0.6772,-0.4997,0.2735,-0.4656,42.20082,-79.24612,171.96306,142.9686,0.2827,-1.0771,0.2988,0.849,-0.247,0.567,-12.45,-21.737,18.013,39
0.3128,-0.2046,0.6379,-0.6732,8.861432,-87.98819,192.79776,161.97421,-0.0078,-0.9638,-0.0288,-0.116,0.202,0.228,10.649,8.563,9.749,38
0.0595,0.0665,-0.7277,0.6799,13.9156275,-84.48894,158.482,198.92426,0.1616,-1.1948,0.0288,-0.731,-0.153,0.841,-1.95,-18.437,-16.337,10
0.733,-0.68,-0.0018,-0.0077,4.4603834,-85.69722,178.6021,178.53528,0.374,-1.246,0.2436,-0.102,-1.191,-0.133,8.399,-6.437,-24.137,14
0.6802,-0.4739,0.5201,-0.2051,2.5421586,-60.143562,233.89148,196.60115,-0.3657,-0.8305,0.0693,0.4,0.142,-0.234,31.649,-24.137,0,48
0.6795,-0.4653,0.5243,-0.2164,3.2263968,-60.078915,233.36353,194.99026,-0.4355,-0.8452,-0.1064,-0.418,-0.575,0.068,31.649,-24.137,0,48
0.5356,-0.4341,-0.4881,0.535,27.848005,-85.88902,174.16983,196.18454,-0.0424,-1.6113,0.4687,-0.56,0.567,0.941,-15.737,-8.087,-19.337,46
0.2686,-0.1717,-0.5778,0.7513,11.415878,-97.82201,175.2867,208.36218,-0.0102,-0.6958,0.2895,-0.182,1.078,-0.268,-15.69,-23.48,-10.081,18
0.7794,-0.5902,-0.1246,0.1687,7.5529685,-75.106186,180.44211,190.62787,0.1523,-0.7885,0.1992,1.17,-0.766,1.005,7.649,-20.987,26.849,6
0.6485,-0.6978,0.1348,-0.2724,3.6636147,-95.23973,156.55464,158.6781,0.2988,-1.6147,0.0263,0.836,-0.038,3.939,10.049,-20.687,-25.037,17
0.7747,-0.5921,-0.1367,0.1745,13.323175,-75.679016,179.53116,190.01892,0.0478,-0.999,0.0732,0.073,-1.356,0.094,-28.8,6.463,-24.737,6
0.6059,-0.4096,0.4622,-0.5013,10.143091,-78.065414,193.7777,157.70822,-0.104,-0.9091,0.1982,-0.044,0.927,-0.558,-4.5,-25.337,-16.337,30
0.1299,-0.206,0.5767,-0.7797,12.0224,-107.41,164.37892,185.7393,-0.062,-0.7407,0.1513,0.443,0.603,-0.589,-27.15,-23.987,5.263,25
0.5635,-0.4421,0.4782,-0.5082,10.056069,-83.50768,188.89597,164.37172,-0.2104,-1.1284,-0.0712,0.008,-1.5,1.07,30.899,-9.437,27.599,30
0.5408,-0.3984,0.5234,-0.5241,14.915149,-81.20778,194.91798,164.93217,-0.2089,-0.9716,0.2553,0.186,-0.185,0.454,-15.75,-15.887,-14.687,30
0.7146,-0.5188,0.3741,-0.2829,18.395056,-72.44133,203.07208,178.57742,0.1386,-1.0493,-0.1171,0.566,-1.361,2.722,-13.95,-10.637,-7.487,31
0.5984,-0.4153,0.4786,-0.49,8.638003,-78.16966,195.7798,161.72223,-0.2143,-0.9033,0.0444,0.23,0.882,-0.611,19.199,-18.437,30.299,30
0.4742,0.0634,0.5706,-0.6674,25.582537,-56.430965,230.04648,114.70702,-0.3471,-0.8007,0.4062,0.143,0.692,-1.873,8.827,-26.216,-20.864,35
0.7599,-0.5661,-0.0498,0.3154,7.083139,-71.683784,203.48447,220.0705,-0.2578,-0.7822,0.0664,0.549,-0.341,0.876,26.42,-15.116,10.249,15
0.3963,-0.3316,-0.4846,0.7056,6.1557965,-98.26703,187.32645,213.7653,0.0527,-0.9428,0.206,-0.301,-0.786,-0.011,31.499,26.863,-24.887,46
0.3327,-0.4943,0.4592,-0.6587,22.589384,-110.87705,144.78658,182.79091,0.2788,-1.1875,0.2006,-0.161,0.348,-0.223,-13.05,19.949,-11.237,2
0.7822,-0.6074,0.1296,-0.0468,17.110083,-74.73915,193.55003,187.66502,-0.0517,-0.8212,0.2231,0.328,-1.028,1.849,-23.687,0.914,-3.3,37
0.6481,-0.7027,0.1543,-0.2494,0.3727621,-95.70489,162.26129,166.32758,0.1655,-1.0019,-0.0336,0.021,0.063,-0.014,3.56,-15.419,-6.385,20
0.6576,-0.5629,0.3113,-0.3919,3.9335225,-85.145454,176.89368,162.28677,0.1166,-1.0434,0.1992,-0.049,-0.52,0.372,-6.75,19.063,-28.787,27
0.6239,-0.5207,0.327,-0.4822,12.217057,-86.48724,171.34222,150.51245,-0.0512,-1.0356,0.31,-0.026,-0.078,-0.113,1.649,-21.137,-26.237,21
0.0734,0.1199,0.684,-0.7157,0.07937416,-88.67366,209.4465,148.25891,-0.2709,-0.9731,0.0356,0.023,0.006,-0.012,-11.087,3.463,-12.75,40
0.4474,-0.3893,-0.4494,0.668,12.522726,-96.851585,190.42894,214.2524,-0.1582,-0.979,0.1074,0.345,-0.854,0.309,28.799,27.013,-18.137,46
0.6342,-0.5489,0.3294,-0.4333,9.614001,-86.77347,174.38466,159.14409,-0.0986,-0.9477,0.2402,0.014,-0.387,-0.011,-24,-5.087,-9.437,27
0.0448,-0.068,-0.6407,0.7633,0.06375643,-100.04167,184.54515,177.39702,-0.0551,-0.9897,0.1679,0,-0.022,-0.021,19.799,-3.287,28.649,7
0.0786,-0.0557,-0.5981,0.7955,7.8135285,-105.50831,179.51556,189.17912,0.1171,-0.874,0.2851,-0.011,1.932,-0.597,28.049,-17.987,22.199,7
0.7921,-0.6092,0.0066,-0.0359,21.652622,-75.10884,176.96739,175.54332,-0.1601,-0.9282,0.3105,-0.206,0.509,-0.38,28.936,-8.837,-25.037,6
0.6076,-0.4487,0.4263,-0.4976,14.35087,-81.56003,186.63393,157.20438,-0.0073,-0.9838,0.248,-0.033,-0.153,-0.035,2.549,8.113,26.399,32
0.0263,0.079,0.6632,-0.7437,8.743465,-95.469406,195.6682,161.44733,-0.1049,-1.0371,0.2768,0.501,1.058,-0.751,-15.737,2.863,-13.2,40
0.2052,-0.2866,0.5811,-0.7334,8.896376,-103.822945,162.17534,184.83972,0.0561,-0.7739,0.1547,0.044,0.975,-0.459,15.449,-9.437,26.099,25
0.4663,-0.4174,-0.3854,0.678,22.606796,-97.8266,197.34564,225.98431,-0.1865,-1.2236,0.4965,-0.991,2.558,-1.002,27.449,-23.537,-14.087,46
0.1512,-0.2067,-0.6108,0.7491,0.8025198,-101.953865,192.21417,176.24226,-0.1591,-0.9809,0.1738,-0.002,-0.021,-0.043,-22.637,-0.587,-15.15,41
0.7453,-0.5933,0.2917,-0.0852,0.25054172,-71.407524,213.03113,199.41267,-0.3593,-0.9418,0.081,0.003,-0.127,-0.05,13.949,-10.187,14.849,3
0.4578,-0.3558,-0.6231,0.5248,0.20627789,-78.637924,157.03226,183.55534,0.2163,-1.0034,-0.0229,0.006,0.036,0.061,-15.585,-26.569,0.219,16
0.8026,-0.5355,-0.0805,0.2498,17.882956,-67.80895,191.18057,207.19562,0.0537,-0.7934,0.246,0.879,-0.058,0.976,7.649,-20.987,26.849,6
0.7102,-0.5234,0.3076,-0.356,6.78418,-76.906105,185.82823,162.56763,0.0336,-1.1704,0.2451,-0.009,0.337,-0.358,14.099,-8.087,26.999,21
0.261,-0.0886,0.6544,-0.704,11.866082,-86.75334,201.7736,151.56406,-0.331,-1.2246,0.1713,0.194,-0.309,-1.189,10.307,14.696,-14.545,45
0.2723,-0.1474,0.6157,-0.7244,6.214177,-92.47654,191.60837,153.5533,-0.145,-0.9941,0.2124,-0.005,-0.087,-0.038,-14.679,9.244,-29.113,45
0.3654,-0.3506,-0.5195,0.6881,0.95678085,-99.74315,189.68462,199.49411,-0.2177,-0.9833,0.1772,0.018,0.075,-0.277,-25.937,-2.537,-31.787,46
0.7329,-0.6294,0.119,0.2291,14.225126,-71.54456,222.85684,227.53946,-0.3154,-1.3339,0.1767,-0.061,0.303,-0.139,14.839,-18.278,26.121,26
0.5195,-0.4276,-0.4432,0.5922,23.681799,-90.42281,184.24179,208.43277,-0.0249,-0.809,0.2553,-0.525,-0.657,-0.845,28.049,-17.237,-10.937,46
0.4312,-0.3248,-0.506,0.6726,9.006595,-92.5476,180.04906,211.74675,-0.1118,-1.0751,0.3666,0.003,0.838,-0.333,-30.587,-5.687,-31.487,46
0.0492,-0.0665,-0.6406,0.7633,0.5854672,-100.03007,183.7675,178.59941,-0.0483,-0.9853,0.166,0.007,0.011,-0.033,20.699,-1.187,28.049,7
0.2023,-0.0081,0.7062,-0.6783,22.97326,-81.74358,210.66542,152.61023,-0.29,-1.4223,-0.0556,0.299,-0.821,1.344,-23.376,-25.926,8.776,11
0.2284,-0.1763,-0.5671,0.7714,8.479463,-102.78626,181.14586,203.04823,-0.0087,-0.6582,0.2846,2.55,-0.303,0.162,-12.675,-31.695,-5.813,18
0.0854,-0.2109,-0.6784,0.6984,21.909876,-92.003044,200.46335,159.7636,0.0546,-1.0073,0.0839,-0.387,1.258,-1.341,-28.187,-15.137,6.599,40
0.7176,-0.6745,0.1661,0.0479,12.391488,-80.54065,212.65083,210.20378,-0.2255,-1.2827,0.0117,-0.117,0.224,-0.132,2.249,-13.787,-8.387,19
0.2918,-0.3172,-0.6387,0.6373,2.8610535,-90.71977,183.67905,176.13635,0.1416,-1.0249,-0.2519,0.829,-3.039,1.525,13.64,28.399,-28.697,12
0.7277,-0.6855,0.0154,-0.0127,2.9321249,-86.5758,180.54097,180.28441,0.1083,-1.0283,0.0712,-0.097,-0.044,0.027,-11.7,5.113,-11.837,14
0.3258,-0.3421,-0.6372,0.6088,6.279654,-88.509575,180.1612,175.60815,-0.0429,-1.0698,-0.1894,0.508,-1.33,1.758,27.74,-29.037,-22.397,12
0.8106,-0.5765,0.0924,-0.0444,3.8567502,-70.597305,188.55661,182.9739,0.0961,-0.9067,0.3422,-0.213,-0.803,-1.052,-29.987,-15.737,10.049,50
0.5887,-0.4107,0.5059,-0.4781,17.398563,-77.095566,200.01038,166.05502,-0.0532,-0.8959,-0.0249,0.332,-0.758,1.533,-19.5,-24.287,-3.887,28
0.4784,-0.3385,-0.5106,0.6289,14.997972,-87.33728,174.24419,209.30998,-0.185,-0.9204,0.2983,-0.256,0.453,-0.444,-30.587,-5.687,-31.487,46
0.4686,-0.4469,0.5278,-0.5495,2.0385785,-90.09364,180.38571,175.02943,-0.0283,-1.0302,0.0625,0.045,0.26,-0.385,-4.2,17.863,-18.137,28
0.1956,-0.0944,0.6817,-0.6985,25.008009,-88.45643,194.59984,163.64589,-0.2783,-0.8574,0.1489,0.153,0.886,-0.301,32.26,1.974,-9.674,11
0.1437,-0.0709,-0.5725,0.804,13.170645,-105.714005,175.66199,204.27948,0.1752,-0.934,0.2905,-0.033,-0.389,0.212,-28.487,22.963,-26.387,49
0.6189,-0.5121,0.3302,-0.4954,14.147569,-86.48727,171.02304,148.7742,-0.1274,-0.9125,0.3237,-0.103,0.042,-0.289,24.599,-25.487,-23.537,21
0.5021,-0.3353,-0.4584,0.6521,8.388719,-86.8383,178.05234,221.19461,0.1831,-0.4326,0.5283,-0.214,-0.793,-0.665,-26.837,-8.087,-30.587,36
0.552,-0.4851,0.5042,-0.4534,21.18217,-83.213745,193.0522,178.83359,-0.2294,-0.9208,-0.102,0.053,0.492,0.398,21.962,-17.497,28.405,34
0.6744,-0.5211,-0.38,0.3592,30.639103,-78.15774,166.50177,188.44238,-0.2094,-0.684,0.0175,0.222,1.981,-0.89,-4.928,20.7,-8.314,23
0.7411,-0.642,0.186,-0.0619,23.650366,-79.257904,200.11758,194.3582,0.1669,-0.8828,-0.1533,0.244,0.084,0.386,-4.35,9.613,-10.337,17
0.6722,-0.4878,0.4189,-0.3668,16.12313,-74.89614,199.86014,172.29883,-0.0927,-1.1777,0.122,-0.26,-1.129,1.392,-11.434,-10.826,10.775,44
0.7037,-0.5641,0.304,-0.3066,6.2990627,-79.50792,187.95567,171.38344,-0.206,-0.9365,0.2451,-0.193,-0.345,0.148,-23.55,-21.737,-10.337,8
0.1173,-0.1142,-0.5766,0.8003,13.364869,-107.62785,184.15962,189.25613,-0.1015,-0.8725,0.2519,0.16,0.894,-0.186,-8.4,28.949,-19.487,7
0.5591,-0.331,0.466,-0.6004,10.399015,-79.3954,190.49348,142.18759,0.081,-0.9389,0.2871,-0.536,0.406,-1.111,5.549,20.999,2.549,47
0.371,-0.1601,0.6323,-0.6609,8.750647,-81.247345,205.27084,150.00897,-0.227,-0.9877,0.1757,0.063,-0.119,0.17,11.119,-32.137,-24.676,35
0.4808,-0.2912,-0.5076,0.6528,3.1785007,-84.79512,170.61429,217.525,0.0961,-0.9394,0.3364,0.026,0.154,-0.224,-16.05,-12.137,0.463,36
0.2014,-0.0343,-0.6049,0.7696,17.196575,-95.642494,162.84946,216.55518,-0.2641,-1.4326,0.2446,-0.615,-1.849,0.15,-9.137,0.313,-24.737,49
0.7232,-0.6886,0.0414,-0.0302,3.1330736,-87.143814,181.9999,181.45595,0.1479,-1.2309,-0.0083,0.33,-0.387,0.694,1.949,-24.887,-21.887,14
0.5904,-0.4459,0.4481,-0.5016,16.416737,-82.371414,187.79599,160.10747,-0.1557,-1.1196,0.2924,-0.247,-0.154,-0.203,-23.687,-12.887,-30.437,32
0.2957,0.054,0.7837,-0.5433,0.11372978,-58.592674,248.61575,147.73064,-0.5297,-0.8398,-0.2285,-0.018,-0.001,-0.014,-1.787,-1.187,32.099,29
0.2963,-0.2774,0.5745,-0.7106,24.402805,-98.7172,174.80392,166.0325,0.0185,-1.3383,0.3876,-0.365,-0.333,0.076,-2.55,26.999,-9.737,24
0.1501,-0.2084,-0.6105,0.7491,0.66231614,-102.02109,192.60725,175.71445,-0.1445,-0.9804,0.1738,-0.003,-0.02,-0.01,-21.587,-1.637,-16.35,41
0.5113,-0.3114,-0.503,0.6233,6.5363393,-82.46798,168.9114,214.97119,0.3959,-0.9287,0.1582,0.359,-0.767,0.627,2.999,25.349,4.664,36
0.3526,-0.241,-0.5918,0.6835,24.949919,-90.56793,171.50208,203.42383,-0.0424,-1.3071,0.2353,-0.211,0.224,0.699,17.399,-8.237,4.499,41
0.7269,-0.6634,0.1031,0.1436,10.141779,-79.09908,214.44995,215.54625,-0.2368,-0.5791,0.1513,0.243,0.532,-0.532,1.039,29.558,-30.265,26
0.558,-0.4358,0.4124,-0.5731,12.810439,-87.444855,176.48392,147.55714,-0.0649,-0.7646,0.3408,0.233,1.115,-0.485,-16.823,14.539,-5.708,4
0.5915,-0.6176,0.1413,-0.4985,31.031792,-91.54985,138.90399,121.387634,-0.4023,-0.9492,0.0751,-0.777,0.413,-0.756,10.349,-16.187,-30.587,17
0.7607,-0.6045,0.09,-0.2184,33.52245,-77.51272,168.41156,158.43758,-0.0727,-1.4257,0.4946,-0.133,1.168,0.173,30.449,-24.587,0.599,37
0.5801,-0.665,0.3253,-0.3394,23.435009,-96.51139,170.63596,185.03252,0.1767,-1.2065,-0.1049,-0.118,-0.799,0.102,31.747,-23.369,-6.085,20
0.662,-0.5646,0.275,-0.4088,3.8705988,-85.42332,170.79016,154.69441,0.1201,-1.0444,0.1113,0.331,-0.608,0.741,19.649,-7.787,21.599,21
0.5465,-0.7033,0.1062,-0.442,13.137745,-101.560326,125.79736,123.40669,0.3496,-1.083,0.1455,-1.241,1.184,-1.107,28.282,-32.111,11.009,5
0.6335,-0.4181,0.4851,-0.434,4.6992235,-73.1495,204.09583,167.07425,-0.1162,-0.791,-0.0009,0.224,-1.304,0.975,1.199,32.249,-11.687,30
0.6779,-0.5851,0.3416,-0.2848,0.8136531,-81.19954,193.69704,181.35303,-0.1635,-0.9936,0.0874,-0.038,-0.133,-0.003,12.415,29.223,-24.474,44
0.6642,-0.5516,0.3544,-0.3588,34.068092,-81.93668,187.52507,171.3572,0.0043,-0.7753,0.1298,-0.32,-0.519,-1.061,-2.1,-18.287,-32.237,3
0.641,-0.4148,0.4818,-0.4297,26.096355,-72.291824,204.73758,166.59113,0.0014,-0.8623,0.0415,0.466,-1.245,1.902,-31.037,-6.737,25.049,28
0.6826,-0.6158,0.1977,-0.34,9.403003,-86.64956,165.41461,155.35097,0.5947,-0.9833,0.2304,-0.275,-0.036,-0.287,6.149,20.549,-15.437,9
0.7411,-0.596,-0.1189,0.285,4.9754763,-78.6447,194.77524,207.97818,-0.2768,-0.9677,0.1704,-0.041,-0.311,-0.113,-21.866,0.634,-13.001,15
0.6525,-0.5094,0.3906,-0.4025,0.48330498,-80.16126,189.69237,167.43681,-0.124,-1.0097,0.1884,-0.003,-0.057,-0.015,-25.637,-0.887,16.799,32
0.726,-0.6589,0.1338,0.1439,12.765466,-76.91844,218.62302,218.9337,-0.3925,-0.7778,0.1845,0.076,0.6,-0.475,-19.66,-20.528,-18.415,26
0.6801,-0.4213,0.4501,-0.3965,9.863461,-69.52865,205.29462,166.27753,-0.1831,-0.9672,-0.0351,0.054,-0.401,0.423,25.499,-20.687,25.949,30
0.0869,-0.0202,-0.561,0.8229,5.3433237,-109.44352,174.62706,201.154,0.0722,-0.7763,0.5473,-0.988,-0.857,-1.123,22.349,-5.237,1.213,49
0.742,-0.6672,0.0636,-0.0005,4.518025,-83.34674,189.72925,188.6743,-0.102,-0.7714,-0.0048,0.305,-0.551,0.387,1.949,-24.887,-21.887,14
