q0,q1,q2,q3,accX,accY,accZ,gyrX,gyrY,gyrZ,magX,magY,magZ,0
0.3115,-0.5459,0.4554,-0.6304,0.5151,-0.9975,-0.1303,1.103,-1.408,1.824,-23.55,30.149,-15.437,1
0.4489,-0.3958,0.539,-0.5926,0.0141,-1.227,0.1127,0.079,0.512,0.038,14.836,-16.337,5.563,1
0.4641,-0.4114,0.53,-0.5781,0.1694,-1.0375,-0.0498,0.001,-0.913,1.291,27.136,15.749,1.813,1
0.3042,-0.484,0.4815,-0.6642,0.4179,-0.9042,0.1318,-0.083,1.799,-1.439,-11.4,18.599,-11.837,1
0.4745,-0.3725,0.5463,-0.5809,0.0292,-1.142,0.0966,-0.052,0.98,-0.193,1.649,-26.837,28.049,1
0.4423,-0.3876,0.5514,-0.5915,0.1557,-1.0112,0.186,-0.286,2.457,-1.13,-3.3,18.599,-17.687,1
0.4121,-0.4286,0.5189,-0.614,0.2246,-0.9194,0.1674,0.184,-0.769,-1.172,21.436,-7.187,0.164,1
0.2793,-0.5147,0.4554,-0.6704,0.1909,-1.1884,0.122,-1.239,0.316,-1.296,10.186,21.449,10.813,1
0.4246,-0.4796,0.4767,-0.6019,0.1552,-1.0131,0.1157,0.092,0.136,-0.136,-7.65,-5.237,28.649,1
0.4115,-0.532,0.437,-0.597,0.4316,-0.7382,0.0327,0.712,2.075,2.69,-3.75,-26.087,-18.137,1
0.3444,-0.4729,0.5,-0.6384,0.3813,-0.7363,0.0698,-0.04,-0.465,-1.882,-11.4,18.599,-11.837,1
0.4399,-0.3848,0.5459,-0.6001,0.0415,-1.2495,0.1323,-0.131,1.001,0.022,26.386,-8.537,-4.787,1
0.2429,-0.4709,0.4818,-0.6978,0.0952,-1.1313,0.1181,-0.757,0.867,-0.735,-28.5,-17.987,-13.487,1
0.4212,-0.4892,0.4704,-0.6015,0.2216,-0.9418,0.1279,-0.024,0.397,0.379,-11.85,-7.037,29.849,1
0.3659,-0.4864,0.4809,-0.631,0.1918,-0.8339,0.0004,0.739,1.56,2.391,-31.05,8.549,-1.787,1
0.3983,-0.4634,0.4755,-0.6327,0.1513,-1.0205,0.1181,0.143,0.273,-0.657,21.436,-7.187,0.164,1
0.451,-0.4107,0.5309,-0.5881,0.0966,-1.1567,-0.0336,0.221,0.252,0.158,14.999,-11.687,-32.237,1
0.4158,-0.5189,0.4468,-0.5984,0.3896,-0.7143,0.02,0.509,2.211,2.673,-3.75,-26.087,-18.137,1
0.4026,-0.4628,0.4782,-0.6284,0.2021,-1.0043,0.123,0.223,0.205,-0.608,21.436,-7.187,0.164,1
0.3903,-0.3957,0.5649,-0.6098,0.0278,-1.0161,0.1582,-0.225,-0.312,-0.732,27.736,25.499,6.013,1
0.2528,-0.516,0.4756,-0.6659,0.4208,-0.8066,-0.1108,0.3,-2.653,-0.008,-28.2,-14.387,-12.137,1
0.4204,-0.3823,0.5551,-0.6072,-0.0014,-0.8867,0.2036,-0.4,-0.187,-0.476,26.386,-8.537,-4.787,1
0.394,-0.4018,0.5588,-0.609,0.1704,-1.1333,0.2309,-0.299,-0.148,-0.849,-14.85,-23.087,-20.387,1
0.4089,-0.43,0.5179,-0.6161,-0.0239,-1.0664,0.0229,-0.092,1.259,0.322,-1.2,-5.837,26.999,1
0.2329,-0.4637,0.4866,-0.7027,0.0634,-1.2568,0.122,-0.569,0.943,-1.282,-15.0,-31.937,-22.037,1
0.3395,-0.4585,0.5179,-0.6373,0.2646,-0.6752,0.0854,-0.077,-0.105,-1.546,-15.6,-17.237,-19.337,1
0.2021,-0.5002,0.4821,-0.6902,0.1601,-1.122,-0.1245,-0.321,-1.906,-0.268,-15.0,-31.937,-22.037,1
0.2602,-0.5245,0.4713,-0.6595,0.4584,-0.8247,-0.082,0.324,-2.787,0.075,-28.2,-14.387,-12.137,1
0.3744,-0.5447,0.4454,-0.6037,0.4213,-1.019,-0.0874,0.983,-0.516,1.852,0.436,28.199,24.463,1
0.4243,-0.4808,0.4813,-0.5974,0.1601,-1.0058,0.1201,0.213,-0.116,-0.105,-7.65,-5.237,28.649,1
0.4519,-0.388,0.5551,-0.5805,0.1147,-1.2612,-0.0415,-0.286,0.678,0.925,-27.75,32.249,-11.687,1
0.3801,-0.4136,0.553,-0.6152,-0.0009,-0.9453,0.0634,-0.054,-0.258,-1.255,-15.6,-17.237,-19.337,1
0.4577,-0.3919,0.5495,-0.5786,-0.0507,-1.081,-0.0175,0.056,-0.371,1.246,-1.05,27.449,-22.037,1
0.4391,-0.417,0.5302,-0.5934,-0.0917,-0.9516,-0.059,-0.036,1.237,2.119,-1.05,27.449,-22.037,1
0.2597,-0.587,0.4245,-0.6384,0.5903,-0.7998,-0.0063,0.726,-2.145,0.311,-3.75,-26.087,-18.137,1
0.4451,-0.3903,0.5415,-0.5968,0.0136,-1.1909,0.1079,0.183,0.895,-0.023,14.836,-16.337,5.563,1
0.4601,-0.4157,0.5181,-0.589,0.0346,-0.9135,-0.0981,0.237,-0.043,1.413,-8.55,-22.187,32.399,1
0.2237,-0.473,0.4905,-0.6968,-0.0322,-1.4389,-0.0805,-0.85,-0.324,-0.306,-28.5,-17.987,-13.487,1
0.4229,-0.478,0.4915,-0.5924,0.1328,-0.997,0.0556,0.009,0.025,-0.025,-7.8,-4.637,29.549,1
0.2774,-0.5932,0.4186,-0.6292,0.5395,-0.8422,-0.0541,0.945,-1.824,0.955,-3.75,-26.087,-18.137,1
0.3831,-0.4095,0.5558,-0.6136,0.0209,-1.0078,0.101,-0.152,0.118,-1.084,-15.6,-17.237,-19.337,1
0.4465,-0.4214,0.5278,-0.5867,0.1298,-1.1733,-0.0913,0.181,0.368,0.993,-10.8,-10.037,-23.687,1
0.4267,-0.3617,0.5605,-0.6105,-0.0625,-0.9985,0.1557,-0.028,2.207,-1.404,1.649,-26.837,28.049,1
0.3571,-0.5538,0.4424,-0.6082,0.4189,-0.9301,-0.0903,0.918,0.144,1.666,-2.114,14.399,20.863,1
0.3665,-0.383,0.5687,-0.6288,-0.0595,-1.0629,0.1474,-0.482,-0.388,-1.141,1.349,-28.187,-29.687,1
0.424,-0.4847,0.4857,-0.591,0.1484,-0.996,0.0458,0.004,0.052,0.001,-7.05,-5.087,29.849,1
0.4362,-0.4259,0.5229,-0.5957,-0.0673,-0.9541,-0.0454,-0.009,1.404,2.182,-1.05,27.449,-22.037,1
0.2333,-0.4918,0.4871,-0.6829,0.2812,-1.123,-0.103,0.044,-2.208,-0.002,-28.5,-17.987,-13.487,1
0.246,-0.5292,0.4724,-0.6604,0.4145,-0.7416,0.0361,0.618,-1.888,0.257,-13.5,-15.887,-23.837,1
0.4393,-0.4331,0.5176,-0.5927,0.2231,-1.1191,-0.102,-0.495,0.354,1.415,-10.8,-10.037,-23.687,1
0.3453,-0.5367,0.4561,-0.6201,0.5205,-0.9492,0.0024,1.161,-0.706,2.081,-23.55,30.149,-15.437,1
0.3028,-0.4655,0.4983,-0.6657,0.2919,-0.8696,0.0708,0.217,-0.147,-1.561,1.349,-28.187,-29.687,1
0.447,-0.4055,0.5379,-0.5884,0.1235,-1.0512,-0.038,0.031,0.299,1.446,-27.75,32.249,-11.687,1
0.2842,-0.476,0.4717,-0.6855,0.2133,-1.25,0.1518,-0.409,1.708,-0.982,-28.5,-17.987,-13.487,1
0.4943,-0.4004,0.5284,-0.5621,0.2314,-1.0297,0.0166,0.273,0.474,0.435,27.136,15.749,1.813,1
0.3908,-0.4673,0.4708,-0.638,0.1455,-1.0029,0.1181,-0.044,0.014,-0.83,21.436,-7.187,0.164,1
0.4827,-0.382,0.5375,-0.5762,0.0878,-1.1997,0.0766,-0.03,1.092,0.68,1.649,-26.837,28.049,1
0.3605,-0.4979,0.4747,-0.6298,0.2529,-0.8598,0.0209,0.823,1.396,2.443,-31.05,8.549,-1.787,1
0.4238,-0.4838,0.4755,-0.6001,0.229,-0.7099,0.0043,-0.012,1.93,2.23,-1.05,27.449,-22.037,1
0.3794,-0.4178,0.5333,-0.63,0.143,-1.3671,0.0429,0.093,-0.335,-0.499,2.849,-6.437,28.649,1
0.4196,-0.473,0.4844,-0.6044,0.0888,-0.9287,0.0307,0.023,0.607,0.471,-11.85,-7.037,29.849,1
0.4527,-0.4125,0.5285,-0.5877,0.1381,-1.0,-0.0312,-0.015,-0.85,1.462,27.136,15.749,1.813,1
0.178,-0.4563,0.4921,-0.7196,-0.0107,-1.0371,0.0395,-0.223,-0.534,-0.911,-19.05,13.649,-8.537,1
0.3079,-0.5106,0.456,-0.6605,0.4316,-1.0375,0.1962,0.087,0.895,-1.703,14.249,-16.337,-25.637,1
0.4162,-0.4161,0.532,-0.6086,0.1381,-0.9902,0.1699,0.331,-0.279,-0.948,26.386,-8.537,-4.787,1
0.3234,-0.5978,0.4107,-0.6076,0.5649,-0.8999,-0.2084,1.291,-2.099,1.747,-3.75,-26.087,-18.137,1
0.4496,-0.3812,0.5616,-0.5804,-0.0263,-1.2714,-0.0195,0.094,0.091,-0.154,-14.85,-23.087,-20.387,1
0.2393,-0.5245,0.4759,-0.6641,0.4589,-0.7954,0.0253,0.546,-1.841,0.166,-13.5,-15.887,-23.837,1
0.4414,-0.3883,0.5539,-0.5894,0.1943,-1.1059,0.2011,0.071,0.674,-0.693,-14.85,-23.087,-20.387,1
0.4871,-0.394,0.5336,-0.568,0.1816,-1.0703,0.0371,-0.031,0.976,-0.155,27.736,25.499,6.013,1
0.451,-0.4091,0.531,-0.5891,0.2153,-1.2114,0.0908,-0.051,-0.001,0.096,14.999,-11.687,-32.237,1
0.3399,-0.557,0.44,-0.6168,0.5581,-0.8222,-0.0712,1.075,-1.734,1.339,-28.2,-14.387,-12.137,1
0.4506,-0.4089,0.5323,-0.5884,0.2583,-1.2587,0.1538,-0.25,0.119,0.132,14.999,-11.687,-32.237,1
0.4442,-0.4327,0.504,-0.601,0.0419,-0.8481,-0.0307,-0.282,0.592,1.651,-8.55,-22.187,32.399,1
0.2887,-0.4788,0.4875,-0.6705,0.2734,-0.6943,0.0874,-0.042,-0.191,-1.116,-4.95,-8.087,32.099,1
0.3649,-0.3895,0.5655,-0.6285,-0.083,-1.0566,0.0786,-0.253,-0.929,-1.261,1.349,-28.187,-29.687,1
0.4485,-0.4082,0.5345,-0.5885,0.2993,-1.2739,0.2236,-0.366,0.528,-0.004,14.999,-11.687,-32.237,1
0.3799,-0.4129,0.5372,-0.6296,0.0141,-1.3911,-0.041,-0.004,-0.451,-0.52,-1.2,-5.837,26.999,1
0.4428,-0.3874,0.5434,-0.5987,0.0312,-1.228,0.1147,0.04,0.941,0.008,14.836,-16.337,5.563,1
0.4228,-0.4041,0.5463,-0.5994,0.1479,-0.9897,0.2182,-0.168,-0.42,-0.329,26.386,-8.537,-4.787,1
0.2681,-0.5907,0.4212,-0.6337,0.5751,-0.8334,-0.0161,0.839,-1.982,0.631,-3.75,-26.087,-18.137,1
0.3542,-0.5092,0.4688,-0.6287,0.3076,-0.893,0.0224,0.876,1.057,2.458,-31.05,8.549,-1.787,1
0.4466,-0.4136,0.5274,-0.5926,0.1132,-0.9897,-0.0141,0.04,-0.903,1.563,27.136,15.749,1.813,1
0.4646,-0.3718,0.5496,-0.5862,0.1103,-1.2226,0.1113,-0.275,0.517,-0.458,1.649,-26.837,28.049,1
0.3194,-0.5547,0.4456,-0.6257,0.602,-0.8476,-0.017,1.084,-1.999,1.123,-28.2,-14.387,-12.137,1
0.3867,-0.4476,0.5028,-0.6301,0.0278,-0.8662,-0.0649,0.37,0.668,2.147,27.136,15.749,1.813,1
0.4229,-0.4809,0.4852,-0.5952,0.142,-0.999,0.0869,0.075,0.155,-0.044,-7.05,-5.087,29.849,1
0.3353,-0.5623,0.4411,-0.6137,0.5009,-0.8046,-0.2026,1.665,-2.805,1.343,-13.5,-15.887,-23.837,1
0.3959,-0.4641,0.474,-0.6348,0.1425,-1.0117,0.1254,0.107,0.21,-0.738,21.436,-7.187,0.164,1
0.2581,-0.4609,0.4887,-0.6942,0.1572,-1.0957,0.1318,-0.476,3.14,-1.285,-19.05,13.649,-8.537,1
0.4217,-0.4944,0.4663,-0.6001,0.2719,-0.6796,-0.0019,0.147,2.125,2.386,-1.05,27.449,-22.037,1
0.2554,-0.4712,0.4782,-0.6956,0.0703,-1.1958,0.0493,-0.682,0.87,-0.841,-28.5,-17.987,-13.487,1
0.4223,-0.4799,0.4853,-0.5963,0.1386,-0.9824,0.0756,0.044,0.138,-0.027,-7.05,-5.087,29.849,1
0.4507,-0.4123,0.5306,-0.5874,0.0781,-1.1542,-0.0551,0.276,0.295,0.363,-10.8,-10.037,-23.687,1
0.3934,-0.4654,0.4724,-0.6366,0.1367,-1.0107,0.1264,0.039,0.12,-0.797,21.436,-7.187,0.164,1
0.3883,-0.4807,0.4758,-0.6258,0.0268,-1.018,0.0322,-0.089,-0.392,-0.166,-9.9,-5.237,28.199,1
0.2717,-0.5425,0.4628,-0.6461,0.4008,-0.7373,-0.0302,0.707,-2.256,0.841,-13.5,-15.887,-23.837,1
0.4555,-0.4147,0.5163,-0.5948,0.0454,-0.9697,0.0312,0.108,1.282,1.02,14.836,-16.337,5.563,1
0.3374,-0.4846,0.4642,-0.66,0.2084,-0.9868,0.0781,-0.035,0.148,-1.631,10.186,21.449,10.813,1
0.406,-0.4618,0.482,-0.624,0.2543,-0.9555,0.1591,0.318,-0.072,-0.726,21.436,-7.187,0.164,1
0.4236,-0.4835,0.4862,-0.5918,0.1606,-1.0073,0.0703,0.042,0.025,0.008,-7.05,-5.087,29.849,1
0.3724,-0.4398,0.5402,-0.6131,0.2543,-0.6376,0.0258,0.066,0.791,-1.513,14.249,-16.337,-25.637,1
0.2571,-0.521,0.4602,-0.6711,0.1938,-1.1542,0.0747,-0.989,0.626,-0.982,10.186,21.449,10.813,1
0.2716,-0.5175,0.4571,-0.6703,0.1923,-1.1801,0.0751,-1.227,0.419,-1.152,10.186,21.449,10.813,1
0.3698,-0.5159,0.4622,-0.6191,0.392,-0.7709,0.0883,1.053,0.697,1.922,-23.55,30.149,-15.437,1
0.4237,-0.4827,0.4857,-0.5928,0.1606,-1.0092,0.0742,0.098,0.06,-0.038,-7.05,-5.087,29.849,1
0.3249,-0.5044,0.4685,-0.6483,0.416,-0.9096,0.0791,0.291,-0.466,-1.544,14.249,-16.337,-25.637,1
0.4248,-0.4805,0.4893,-0.5908,0.1582,-1.0,0.0551,0.011,-0.098,-0.011,-6.15,-5.687,28.649,1
0.3317,-0.488,0.4611,-0.6627,0.2031,-1.0424,0.1,-0.121,0.129,-1.659,10.186,21.449,10.813,1
0.4453,-0.4023,0.5418,-0.5883,-0.1455,-0.9355,-0.0659,0.014,0.695,1.758,-1.05,27.449,-22.037,1
0.3736,-0.4771,0.4805,-0.6339,0.0429,-0.9326,0.0527,0.195,-0.092,-0.647,10.636,-11.537,-2.237,2
0.4443,-0.5388,0.4459,-0.5596,0.1796,-0.6508,0.0102,0.124,0.156,1.157,-11.4,-7.187,-20.237,2
0.4866,-0.5177,0.4462,-0.544,0.125,-1.0063,0.0668,0.006,0.019,0.011,-1.2,-3.587,28.049,2
0.5133,-0.4612,0.5134,-0.5098,0.0175,-1.2841,-0.0444,-0.219,1.381,1.04,3.299,25.199,-19.037,2
0.3288,-0.4918,0.4623,-0.6604,0.1733,-1.3818,0.0937,-0.285,0.534,0.026,-19.2,14.699,-8.687,2
0.4868,-0.5182,0.4457,-0.5437,0.1279,-1.0024,0.0771,-0.001,0.009,0.004,-1.2,-3.587,28.049,2
0.4512,-0.5212,0.4656,-0.5547,0.1396,-0.7177,-0.0302,0.408,-0.966,1.12,4.499,-30.287,-20.087,2
0.476,-0.5347,0.4303,-0.5496,0.4877,-0.7143,0.1684,-0.012,0.673,0.233,-1.05,-5.237,28.199,2
0.5007,-0.5051,0.4675,-0.5248,0.2001,-1.0917,-0.0185,-0.163,0.314,-0.004,28.336,9.914,-6.587,2
0.3381,-0.5052,0.4524,-0.6523,0.2036,-1.2514,0.0043,-0.398,-0.162,-0.109,2.699,-18.887,-18.587,2
0.4901,-0.5081,0.4595,-0.5389,0.2915,-0.934,0.0229,-0.029,-0.418,0.43,18.286,1.063,-0.437,2
0.4707,-0.5152,0.469,-0.5412,0.1289,-0.9902,-0.0141,-0.088,0.366,-0.36,29.686,9.013,-3.737,2
0.4667,-0.5053,0.4799,-0.5444,0.0454,-0.8339,-0.0419,0.195,-0.424,0.95,4.186,26.999,11.113,2
0.4176,-0.5261,0.4501,-0.5882,0.3725,-0.9111,0.0927,-0.113,-0.453,1.468,-30.6,14.249,-1.187,2
0.5304,-0.5175,0.4512,-0.497,0.1533,-0.7929,-0.0898,0.651,-0.007,1.482,-0.9,-21.887,-31.637,2
0.4777,-0.5293,0.4394,-0.5462,0.3144,-1.2006,0.018,-0.15,0.0,-0.418,-1.05,-5.237,28.199,2
0.3595,-0.5048,0.4463,-0.6454,0.2812,-1.3242,0.0961,-0.045,0.315,-0.605,6.899,-15.137,-22.037,2
0.4763,-0.4948,0.4909,-0.5359,0.4926,-1.0244,0.0957,0.14,0.76,-0.079,13.499,-12.437,-27.137,2
0.3786,-0.4745,0.4857,-0.6288,-0.0244,-0.9062,0.0175,0.142,0.476,-0.745,10.636,-11.537,-2.237,2
0.4387,-0.5149,0.4754,-0.5624,0.0991,-0.7944,-0.0341,0.175,0.921,-1.669,-16.05,-14.387,-17.237,2
0.3796,-0.5348,0.4278,-0.6218,0.31,-1.2485,0.1152,-0.227,0.136,-0.135,-4.2,-11.237,31.649,2
0.4934,-0.4558,0.5299,-0.5175,-0.0209,-1.2695,0.0185,-0.033,0.194,-0.175,29.686,19.649,2.563,2
0.4788,-0.5261,0.4361,-0.551,0.061,-1.121,0.039,0.107,-0.004,0.257,-6.3,-4.637,31.049,2
0.3827,-0.5221,0.428,-0.6305,0.3056,-1.1855,0.1499,-0.133,0.311,-0.56,-16.8,-29.387,-19.487,2
0.3619,-0.5489,0.4239,-0.6227,0.3291,-0.9023,0.1088,0.237,-1.105,0.467,-27.0,-11.537,-15.287,2
0.4123,-0.5268,0.4394,-0.5994,0.2104,-0.8354,0.1904,-0.021,0.776,-0.661,-4.2,-11.237,31.649,2
0.3599,-0.5204,0.4481,-0.6314,0.3359,-0.9858,-0.0141,0.28,-1.388,0.861,-19.2,14.699,-8.687,2
0.3924,-0.4783,0.4878,-0.6157,0.0947,-0.9394,0.0805,0.189,0.929,-0.743,19.186,-7.487,3.013,2
0.3704,-0.5359,0.445,-0.6143,0.0913,-0.7695,0.0502,-0.098,-0.466,0.268,-5.85,-12.137,-31.487,2
0.4762,-0.5114,0.4795,-0.5306,0.3901,-0.9819,0.206,-0.221,0.789,-1.202,-16.05,-14.387,-17.237,2
0.3401,-0.5031,0.4503,-0.6544,0.1376,-1.4355,0.0126,-0.436,0.186,0.011,6.899,-15.137,-22.037,2
0.3761,-0.5141,0.4412,-0.632,0.0795,-1.0087,-0.0024,0.148,0.159,-1.019,-26.25,-16.187,-16.337,2
0.474,-0.5124,0.4536,-0.5538,0.0366,-0.9956,0.1381,-0.022,0.145,-0.196,-1.35,-4.487,27.149,2
0.4698,-0.4879,0.5007,-0.5389,0.4008,-0.8076,0.0991,0.22,-0.673,-0.935,12.449,-7.937,32.549,2
0.542,-0.4898,0.4765,-0.4889,0.1586,-0.8837,-0.0307,0.104,0.723,1.304,-21.75,-27.287,-14.537,2
0.478,-0.4969,0.4897,-0.5335,0.5126,-1.1054,0.0708,0.16,0.207,0.086,13.499,-12.437,-27.137,2
0.4696,-0.5347,0.4537,-0.5362,0.1777,-0.7338,0.0869,-0.216,1.131,1.608,-23.85,31.649,-15.137,2
0.5074,-0.4743,0.4962,-0.5208,0.1088,-1.1728,-0.0244,-0.145,1.442,1.112,-11.4,-7.187,-20.237,2
0.4217,-0.524,0.4537,-0.5844,0.3442,-0.8745,0.0932,-0.196,-0.246,1.472,-30.6,14.249,-1.187,2
0.4723,-0.4837,0.5071,-0.5344,0.1962,-1.0976,0.1376,-0.057,-0.085,-0.637,3.299,25.199,-19.037,2
0.4867,-0.5181,0.4458,-0.5438,0.1362,-1.0048,0.0722,-0.004,0.012,0.002,-1.2,-3.587,28.049,2
0.4131,-0.4796,0.5005,-0.5905,0.041,-0.8964,0.0195,0.297,0.512,-0.964,19.186,-7.487,3.013,2
0.3657,-0.5335,0.4304,-0.6294,0.2114,-1.249,-0.0175,-0.172,-1.175,-0.118,-16.8,-29.387,-19.487,2
0.4583,-0.5309,0.4356,-0.564,0.2021,-1.0751,0.0571,-0.123,0.341,-0.472,-5.25,-3.587,29.099,2
0.3361,-0.4941,0.4588,-0.6575,0.2641,-1.2504,0.145,-0.071,-0.094,-0.323,-13.05,19.949,-11.237,2
0.4723,-0.4942,0.4924,-0.5386,0.4228,-0.9458,0.1733,0.146,-0.94,-0.271,12.449,-7.937,32.549,2
0.4059,-0.4815,0.4927,-0.6004,0.1362,-0.9282,0.0996,0.362,0.283,-0.889,19.186,-7.487,3.013,2
0.3998,-0.5585,0.4189,-0.5938,0.4545,-1.0146,-0.1796,0.363,-1.556,1.044,-27.0,-11.537,-15.287,2
0.3443,-0.5028,0.4493,-0.6531,0.1845,-1.2031,0.1518,-0.29,0.406,-0.014,8.536,19.349,4.813,2
0.4773,-0.522,0.4663,-0.5311,0.0253,-0.7138,0.0336,0.215,0.02,1.192,-23.85,31.649,-15.137,2
0.4664,-0.4882,0.5026,-0.5397,0.3217,-1.0434,-0.0458,0.343,-0.642,-0.366,28.036,-6.437,-2.837,2
0.3749,-0.5337,0.4318,-0.6228,0.29,-1.2412,0.1518,-0.326,0.452,0.008,-5.85,-12.137,-31.487,2
0.3443,-0.5285,0.436,-0.6418,0.1044,-1.457,-0.0117,-0.44,-0.24,0.156,-26.25,-16.187,-16.337,2
0.461,-0.4946,0.4885,-0.5513,0.4277,-1.0107,0.0249,0.472,-0.169,-0.424,26.986,24.449,4.513,2
0.3652,-0.5289,0.4461,-0.6226,0.2797,-1.0039,-0.2011,0.245,-2.053,0.869,2.699,-18.887,-18.587,2
0.3391,-0.5038,0.4517,-0.6534,0.1464,-1.375,-0.0058,-0.443,-0.001,0.019,6.899,-15.137,-22.037,2
0.3593,-0.5194,0.4459,-0.6341,0.3339,-0.9038,0.1723,0.215,-1.392,-0.007,8.536,19.349,4.813,2
0.4868,-0.5172,0.4465,-0.544,0.1259,-1.0043,0.0668,0.001,-0.006,0.007,-0.9,-5.087,26.699,2
0.4662,-0.5531,0.4297,-0.5403,0.4331,-0.8349,0.1796,-0.336,1.029,1.866,-23.85,31.649,-15.137,2
0.3808,-0.4987,0.4648,-0.6245,0.0913,-0.894,0.0122,0.292,0.398,-0.755,6.899,-15.137,-22.037,2
0.4998,-0.5031,0.4718,-0.5237,0.2705,-0.7885,-0.0102,0.398,-0.838,0.93,16.186,-20.387,6.914,2
0.452,-0.5146,0.4729,-0.5541,0.1206,-1.0361,0.0375,-0.208,0.712,-0.449,29.686,9.013,-3.737,2
0.5032,-0.5072,0.4631,-0.5243,0.2011,-1.0952,-0.0878,-0.136,0.308,0.417,28.336,9.914,-6.587,2
0.3681,-0.5384,0.427,-0.6261,0.288,-1.0986,0.0258,0.05,-1.467,-0.247,-16.8,-29.387,-19.487,2
0.3437,-0.513,0.453,-0.6428,0.3896,-0.8911,0.1601,0.205,-1.491,0.024,-19.2,14.699,-8.687,2
0.4769,-0.5148,0.4695,-0.5357,0.142,-0.9863,0.0102,0.019,0.069,-0.25,29.686,9.013,-3.737,2
0.5037,-0.462,0.5096,-0.5224,-0.0107,-1.27,-0.0224,-0.18,1.676,0.942,12.449,-7.937,32.549,2
0.4762,-0.4752,0.5135,-0.5326,0.1279,-1.0253,0.0898,-0.179,-0.083,-1.533,12.449,-7.937,32.549,2
0.4792,-0.5281,0.4401,-0.5456,0.2421,-1.2368,0.0043,-0.172,0.059,-0.282,-1.05,-5.237,28.199,2
0.4759,-0.515,0.4691,-0.5368,0.1342,-0.9848,0.0043,0.037,0.156,-0.278,29.686,9.013,-3.737,2
0.3854,-0.5122,0.4473,-0.6236,-0.0029,-0.9321,-0.0097,0.209,0.703,-0.873,-26.25,-16.187,-16.337,2
0.5157,-0.4773,0.4948,-0.5111,0.1503,-1.0292,-0.0551,-0.127,1.053,1.227,4.499,-30.287,-20.087,2
0.4813,-0.5275,0.4379,-0.546,0.184,-1.33,-0.062,-0.044,-0.15,0.215,-1.05,-5.237,28.199,2
0.39,-0.5002,0.4691,-0.6144,0.121,-0.8198,0.0693,0.135,0.902,-0.841,13.499,-12.437,-27.137,2
0.4096,-0.5,0.474,-0.5978,0.0751,-0.8085,0.0302,0.356,0.361,-1.344,26.986,24.449,4.513,2
0.5029,-0.51,0.459,-0.5255,0.2563,-1.0327,-0.0874,-0.076,0.211,0.361,28.336,9.914,-6.587,2
0.3808,-0.5345,0.4272,-0.6217,0.2836,-1.25,0.0893,-0.193,0.123,-0.18,-4.2,-11.237,31.649,2
0.3763,-0.4749,0.4843,-0.6309,-0.0004,-0.9179,0.0371,0.162,0.255,-0.72,10.636,-11.537,-2.237,2
0.4676,-0.4894,0.4996,-0.5404,0.3725,-1.0356,0.0156,0.424,-0.467,-0.357,28.036,-6.437,-2.837,2
0.4196,-0.5618,0.4176,-0.5777,0.4941,-1.0058,0.0283,0.202,-1.14,1.128,-27.0,-11.537,-15.287,2
0.4648,-0.4834,0.5091,-0.5393,0.207,-1.0024,-0.0063,0.036,-0.592,-0.64,28.036,-6.437,-2.837,2
0.353,-0.485,0.4729,-0.6452,-0.0546,-0.9667,0.0288,0.121,1.057,-0.803,-13.05,19.949,-11.237,2
0.4284,-0.5596,0.4209,-0.5709,0.4707,-0.893,0.1323,0.015,-0.292,1.219,-27.0,-11.537,-15.287,2
0.472,-0.5153,0.4498,-0.5561,0.06,-0.9541,0.1088,0.029,-0.147,-0.322,-0.6,-3.287,27.899,2
0.3731,-0.4787,0.4783,-0.6346,0.0668,-0.9389,0.0585,0.195,-0.266,-0.574,10.636,-11.537,-2.237,2
0.4487,-0.514,0.4738,-0.5565,0.1098,-1.04,0.0429,-0.176,0.722,-0.476,29.686,9.013,-3.737,2
0.3854,-0.5332,0.4266,-0.6205,0.2416,-1.1694,0.0917,-0.14,0.172,-0.41,-4.2,-11.237,31.649,2
0.3306,-0.4931,0.4605,-0.6598,0.2558,-1.2265,0.1909,-0.203,0.55,-0.12,-19.2,14.699,-8.687,2
0.3735,-0.5157,0.4386,-0.634,0.104,-1.0092,0.0419,0.154,0.041,-1.01,-26.25,-16.187,-16.337,2
0.366,-0.5205,0.4318,-0.6391,0.1933,-1.124,0.1049,-0.014,0.033,-0.804,-26.25,-16.187,-16.337,2
0.4742,-0.5344,0.4334,-0.549,0.2963,-0.9511,0.0605,0.017,-0.137,-0.177,-1.05,-5.237,28.199,2
0.4781,-0.4782,0.514,-0.5276,0.2441,-0.9428,0.121,0.2,0.201,-1.213,3.299,25.199,-19.037,2
0.3473,-0.5053,0.4553,-0.6455,0.1362,-1.3388,-0.0395,-0.241,-0.647,0.308,8.536,19.349,4.813,2
0.4748,-0.5125,0.4537,-0.5531,0.0556,-0.999,0.1455,-0.043,0.175,-0.177,-1.35,-4.487,27.149,2
0.3698,-0.5016,0.4521,-0.638,0.1767,-1.1342,0.0742,0.204,0.213,-0.828,6.899,-15.137,-22.037,2
0.4291,-0.5604,0.4298,-0.5629,0.4536,-1.144,-0.0361,0.527,-2.357,1.223,-4.2,-15.737,-28.037,2
0.337,-0.5114,0.4503,-0.6496,0.2709,-0.9189,0.1562,-0.109,-0.449,-0.271,2.699,-18.887,-18.587,2
0.4716,-0.5163,0.4485,-0.5565,0.0805,-0.937,0.1088,0.034,-0.166,-0.353,-0.6,-3.287,27.899,2
0.371,-0.5174,0.436,-0.6359,0.1298,-1.0312,0.0693,0.136,0.004,-0.988,-26.25,-16.187,-16.337,2
0.4848,-0.4661,0.5195,-0.5269,0.0483,-1.3227,0.2021,-0.512,-0.065,-1.199,12.449,-7.937,32.549,2
0.5157,-0.4822,0.489,-0.512,0.143,-0.9609,-0.0688,-0.069,0.949,1.332,4.499,-30.287,-20.087,2
0.3678,-0.532,0.4453,-0.619,0.2045,-1.0478,0.0766,-0.188,-0.136,-0.133,-5.85,-12.137,-31.487,2
0.4236,-0.4964,0.491,-0.577,0.0986,-0.748,-0.0708,0.319,0.665,-1.509,-4.65,23.249,-15.437,2
0.3627,-0.5223,0.4434,-0.6316,0.3364,-0.8671,0.1909,0.198,-1.182,0.113,8.536,19.349,4.813,2
0.5154,-0.4721,0.5008,-0.5103,0.1313,-1.1054,-0.061,-0.183,1.151,1.188,3.299,25.199,-19.037,2
0.4868,-0.5172,0.4465,-0.544,0.1293,-0.9965,0.0678,0.002,-0.016,0.007,-0.9,-5.087,26.699,2
0.5433,-0.5018,0.4602,-0.4911,0.1137,-0.83,-0.0566,0.455,0.397,1.441,-0.9,-21.887,-31.637,2
0.46,-0.495,0.4867,-0.5534,0.4355,-1.0185,0.1005,0.28,0.1,-0.547,26.986,24.449,4.513,2
0.4946,-0.504,0.4725,-0.5271,0.2373,-0.8066,-0.0073,0.441,-1.022,0.881,16.186,-20.387,6.914,2
0.3782,-0.5349,0.4287,-0.622,0.3159,-1.2377,0.1293,-0.249,0.203,-0.098,-5.85,-12.137,-31.487,2
0.4726,-0.4797,0.5097,-0.5353,0.2451,-0.8979,0.038,-0.108,-0.221,-1.426,12.449,-7.937,32.549,2
0.4994,-0.5111,0.4559,-0.5304,0.3398,-0.9321,0.0263,0.07,-0.387,0.287,18.286,1.063,-0.437,2
0.3373,-0.5072,0.4522,-0.6513,0.267,-1.1264,0.0502,-0.282,-0.311,-0.246,2.699,-18.887,-18.587,2
0.4671,-0.5401,0.4256,-0.5557,0.0844,-0.9741,0.0312,0.126,0.05,0.306,-6.3,-4.637,31.049,2
0.4031,-0.4815,0.4906,-0.6039,0.1474,-0.9321,0.1137,0.32,0.461,-0.861,19.186,-7.487,3.013,2
0.3415,-0.503,0.4486,-0.6549,0.1621,-1.3593,0.0742,-0.348,0.396,-0.184,6.899,-15.137,-22.037,2
0.4602,-0.4868,0.5044,-0.5446,0.2402,-0.7827,0.1342,0.491,-0.135,-1.171,26.986,24.449,4.513,2
0.4705,-0.5187,0.4455,-0.5576,0.102,-0.8891,0.1049,0.019,-0.176,-0.422,-0.6,-3.287,27.899,2
0.3888,-0.513,0.4485,-0.62,0.0117,-0.9433,-0.0185,0.191,0.919,-0.817,-16.05,-14.387,-17.237,2
0.3827,-0.5221,0.428,-0.6305,0.3056,-1.1855,0.1499,-0.133,0.311,-0.56,-16.8,-29.387,-19.487,2
0.5396,-0.5071,0.4567,-0.4929,0.1206,-0.8144,-0.0717,0.555,0.246,1.463,-0.9,-21.887,-31.637,2
0.4802,-0.4602,0.5298,-0.526,0.0249,-1.0629,0.125,-0.336,0.056,-1.163,28.036,-6.437,-2.837,2
0.5031,-0.5086,0.461,-0.5248,0.246,-1.0878,-0.0942,-0.111,0.261,0.43,28.336,9.914,-6.587,2
0.3673,-0.5025,0.4502,-0.6401,0.187,-1.2011,0.0678,0.12,0.181,-0.771,6.899,-15.137,-22.037,2
0.4268,-0.5232,0.4458,-0.5875,0.1474,-0.7841,0.0625,-0.066,0.215,-0.784,-2.25,-9.587,29.549,2
0.3439,-0.4837,0.4697,-0.6534,0.0019,-1.0502,0.0488,0.149,0.328,-0.785,-13.05,19.949,-11.237,2
0.4766,-0.4978,0.4897,-0.5339,0.4628,-1.0996,0.0815,-0.071,-0.685,0.236,12.449,-7.937,32.549,2
0.4661,-0.492,0.5027,-0.5364,0.3691,-1.1162,0.0078,-0.015,-0.008,-0.6,-4.65,23.249,-15.437,2
0.4651,-0.4801,0.5122,-0.5391,0.1684,-0.9428,0.0634,0.033,-0.479,-0.819,28.036,-6.437,-2.837,2
0.4584,-0.4876,0.4977,-0.5515,0.3466,-1.0546,0.1108,-0.045,1.142,-0.686,19.186,-7.487,3.013,2
0.3715,-0.5435,0.4228,-0.6226,0.3427,-0.9858,0.1059,0.199,-1.671,-0.228,-16.8,-29.387,-19.487,2
0.4454,-0.5135,0.4746,-0.559,0.101,-1.0307,0.0454,-0.168,0.711,-0.491,29.686,9.013,-3.737,2
0.4942,-0.4995,0.48,-0.5251,0.2485,-0.8666,-0.0292,0.072,-0.112,1.349,-30.6,14.249,-1.187,2
0.3983,-0.5082,0.4568,-0.6117,0.2875,-0.7705,0.1821,0.387,0.121,-1.229,17.986,22.649,6.164,2
0.5043,-0.4527,0.5251,-0.5146,0.0952,-1.3471,0.0629,-0.326,0.539,-0.344,28.036,-6.437,-2.837,2
0.4648,-0.5206,0.4628,-0.5465,0.1953,-0.7065,-0.0244,0.567,-1.235,1.028,4.499,-30.287,-20.087,2
0.4866,-0.5171,0.4466,-0.5442,0.1201,-0.9995,0.0664,0.0,-0.003,0.004,-2.1,-4.937,27.899,2
0.484,-0.4567,0.5316,-0.5239,-0.0766,-1.1811,0.0629,-0.39,0.216,-1.025,28.036,-6.437,-2.837,2
0.4389,-0.5126,0.4715,-0.5675,0.1601,-0.7377,0.0024,-0.069,-0.205,1.185,-30.6,14.249,-1.187,2
0.4866,-0.5171,0.4466,-0.5442,0.1293,-0.9931,0.0693,0.003,-0.001,0.004,-2.1,-4.937,27.899,2
0.3679,-0.4929,0.472,-0.6314,0.0385,-0.8588,0.0302,0.087,1.665,-0.796,-13.05,19.949,-11.237,2
0.3615,-0.5227,0.4302,-0.641,0.2216,-1.2158,0.1284,-0.182,0.134,-0.478,-26.25,-16.187,-16.337,2
0.4519,-0.5261,0.4555,-0.5579,0.3842,-0.9169,0.1406,-0.321,0.52,1.64,4.186,26.999,11.113,2
0.4866,-0.5171,0.4466,-0.5442,0.1254,-1.0019,0.0659,0.001,-0.001,0.0,-2.1,-4.937,27.899,2
0.3838,-0.5535,0.4138,-0.6123,0.2963,-0.7724,0.1088,0.253,-1.224,0.395,-23.85,31.649,-15.137,2
0.4662,-0.5155,0.4697,-0.5442,0.142,-1.0156,-0.0029,-0.139,0.42,-0.377,29.686,9.013,-3.737,2
0.4906,-0.5022,0.4774,-0.5283,0.2583,-0.8413,-0.0375,0.146,-0.356,1.285,-30.6,14.249,-1.187,2
0.3886,-0.5554,0.4128,-0.6082,0.2724,-0.7802,0.0039,0.181,-1.197,0.649,-23.85,31.649,-15.137,2
0.391,-0.5032,0.4523,-0.6238,0.0283,-0.9619,0.017,0.553,-0.625,-1.089,-5.85,-26.237,-22.787,2
0.4715,-0.5289,0.4378,-0.5532,0.3554,-0.8276,0.1118,-0.329,1.229,0.281,-2.25,-9.587,29.549,2
0.4405,-0.5052,0.484,-0.5623,0.0703,-0.7426,-0.0385,0.034,0.763,-1.558,-5.85,-26.237,-22.787,2
0.5006,-0.5114,0.4555,-0.5293,0.3364,-0.9252,0.0156,0.049,-0.291,0.269,18.286,1.063,-0.437,2
0.4275,-0.5146,0.4655,-0.5792,0.2705,-0.7343,0.2368,0.46,0.237,-1.277,-5.85,-26.237,-22.787,2
0.4237,-0.5142,0.4636,-0.584,0.2622,-0.7949,0.2666,0.325,0.76,-1.036,-5.85,-26.237,-22.787,2
0.3284,-0.4911,0.4644,-0.6597,0.0844,-1.4985,0.0292,-0.359,0.214,0.271,-19.2,14.699,-8.687,2
0.4585,-0.5091,0.4749,-0.5521,0.1567,-0.7509,-0.0703,0.201,-0.985,1.062,-30.6,14.249,-1.187,2
0.4869,-0.5172,0.4464,-0.544,0.1381,-1.0048,0.0737,0.002,-0.007,0.005,-0.9,-5.087,26.699,2
0.3626,-0.5234,0.4323,-0.6383,0.0649,-1.4252,0.0351,-0.372,-0.241,-0.106,-16.8,-29.387,-19.487,2
0.4795,-0.5264,0.4375,-0.549,0.0854,-1.1948,0.0112,-0.177,-0.132,0.076,-1.05,-5.237,28.199,2
0.4868,-0.5182,0.4457,-0.5437,0.1318,-0.9936,0.0756,-0.001,0.003,0.005,-1.2,-3.587,28.049,2
0.461,-0.4939,0.4915,-0.5494,0.3798,-1.0429,-0.0336,0.402,-0.189,-0.298,26.986,24.449,4.513,2
0.5448,-0.4542,0.5152,-0.4809,-0.0126,-1.2285,0.0209,-0.235,1.21,0.176,-0.9,-21.887,-31.637,2
0.3517,-0.5054,0.4437,-0.651,0.2529,-1.2241,0.1538,-0.275,0.256,-0.084,8.536,19.349,4.813,2
0.6769,-0.5942,0.2809,-0.3312,-0.0454,-1.1235,0.1132,-0.453,-0.528,-0.126,8.249,-13.037,18.599,3
0.6995,-0.5648,0.3091,-0.3099,-0.2866,-0.9335,0.249,0.47,0.898,-0.741,11.099,-8.837,19.049,3
0.7451,-0.5924,0.293,-0.089,-0.3911,-0.9184,0.1176,0.079,0.379,-0.072,13.949,-10.187,14.849,3
0.7267,-0.5027,0.3677,-0.2894,-0.208,-1.0244,0.1997,-0.029,1.041,-0.811,-4.95,-23.087,-32.387,3
0.6717,-0.5357,0.3706,-0.3526,-0.1005,-0.9013,0.2187,-0.445,-0.4,-1.124,-2.1,-18.287,-32.237,3
0.7453,-0.5935,0.2917,-0.0834,-0.3579,-0.9492,0.0966,0.029,0.068,-0.012,14.249,-9.137,14.849,3
0.6646,-0.5532,0.3365,-0.3726,-0.0961,-0.8398,0.1879,-0.043,0.24,-0.719,3.749,-22.637,29.849,3
0.7124,-0.5601,0.3238,-0.2717,-0.2509,-0.8803,0.0234,0.328,0.11,0.714,7.799,-15.737,20.399,3
0.6773,-0.5887,0.3255,-0.2978,-0.1674,-1.5224,-0.0214,-0.173,-0.602,0.893,26.536,-15.587,0.463,3
0.7434,-0.5935,0.2927,-0.0964,-0.4702,-0.8969,0.0444,-0.099,-0.067,-0.205,13.949,-9.437,14.399,3
0.7083,-0.5892,0.2989,-0.2482,-0.2451,-0.9433,0.2397,0.501,0.703,-0.666,11.099,-8.837,19.049,3
0.6749,-0.5738,0.3279,-0.3279,0.0546,-0.9018,0.2348,0.174,0.208,-0.895,-31.5,-22.787,-5.687,3
0.7452,-0.5937,0.2914,-0.0837,-0.3466,-0.9311,0.1157,-0.003,0.01,-0.02,14.249,-9.137,14.849,3
0.6406,-0.582,0.3518,-0.3563,0.0639,-1.2338,-0.0151,0.054,-1.148,0.913,-24.6,20.549,-7.787,3
0.743,-0.5023,0.3587,-0.2583,-0.2866,-1.0332,0.0317,0.199,0.121,0.129,-5.1,-25.187,-26.687,3
0.6644,-0.5273,0.3985,-0.3484,-0.082,-0.9833,0.3095,-0.658,-0.156,-0.763,-5.25,21.899,-16.787,3
0.6718,-0.55,0.3408,-0.3604,-0.0004,-0.8471,0.1845,0.007,0.145,-0.76,7.949,-22.787,22.799,3
0.6899,-0.5757,0.2853,-0.3332,-0.0844,-1.2988,0.3168,-0.346,0.024,-0.362,8.249,-13.037,18.599,3
0.7111,-0.5204,0.3787,-0.2826,-0.1386,-0.8789,-0.0292,0.283,0.327,-0.003,-27.75,32.549,-4.037,3
0.7452,-0.5938,0.2915,-0.0838,-0.3549,-0.9233,0.1044,-0.001,0.036,-0.019,14.249,-9.137,14.849,3
0.7422,-0.5987,0.2857,-0.0946,-0.4746,-0.8906,0.0722,-0.152,-0.419,-0.257,13.949,-9.437,14.399,3
0.6935,-0.5707,0.2884,-0.3318,-0.1093,-1.1928,0.2753,-0.138,-0.446,-0.427,8.249,-13.037,18.599,3
0.7123,-0.5858,0.3153,-0.2235,-0.0986,-0.9858,-0.0717,0.153,-0.504,0.552,-27.15,-4.037,-2.837,3
0.7083,-0.5255,0.3779,-0.2812,-0.1552,-0.8232,-0.02,0.143,-0.15,0.273,-27.75,32.549,-4.037,3
0.7043,-0.5282,0.3786,-0.2853,-0.1318,-0.8798,0.0024,0.246,-0.454,0.332,-27.75,32.549,-4.037,3
0.6961,-0.5159,0.3913,-0.3099,-0.3818,-1.4545,0.1904,-0.174,0.15,-0.302,-27.15,-25.487,-6.737,3
0.7046,-0.5246,0.3711,-0.3007,-0.2246,-0.8486,-0.0224,0.372,-0.564,0.366,6.299,29.099,-23.687,3
0.7363,-0.6198,0.257,-0.0868,-0.206,-0.9921,0.1103,-0.256,-0.426,-0.42,13.499,-9.137,15.899,3
0.6583,-0.5796,0.3432,-0.3356,-0.1196,-1.2968,-0.041,0.085,-0.873,0.948,-11.55,-9.287,-23.987,3
0.6673,-0.5905,0.3089,-0.3321,-0.0351,-1.0166,0.1708,-0.173,-0.52,0.463,26.986,-19.787,-3.137,3
0.7558,-0.6094,0.2386,-0.0181,-0.2954,-0.9096,0.0961,-0.211,0.131,-0.116,-3.75,6.763,-10.937,3
0.7136,-0.5269,0.3525,-0.298,-0.2055,-1.2241,0.2006,0.02,1.463,-0.785,7.949,-22.787,22.799,3
0.7318,-0.6235,0.2549,-0.1029,-0.1411,-0.9677,0.2109,0.006,0.671,-0.355,13.499,-9.137,15.899,3
0.6579,-0.5436,0.3868,-0.3491,0.0922,-0.9536,0.2055,-0.282,-0.162,-0.553,-5.25,21.899,-16.787,3
0.6417,-0.5909,0.3125,-0.3759,-0.0878,-1.103,0.1704,-0.236,-0.347,0.25,-9.9,-15.887,-26.087,3
0.7068,-0.5243,0.369,-0.2985,-0.1518,-0.8559,0.0048,0.241,-0.69,0.242,6.299,29.099,-23.687,3
0.7452,-0.5927,0.2935,-0.0841,-0.3525,-0.9677,0.1132,-0.007,-0.012,-0.001,14.999,-9.887,15.149,3
0.6824,-0.5578,0.3522,-0.3144,0.0126,-0.7543,0.0942,0.345,0.068,0.659,6.299,29.099,-23.687,3
0.7554,-0.6117,0.2338,-0.0173,-0.25,-0.937,0.1298,0.005,-0.221,-0.137,-3.3,7.813,-8.987,3
0.7325,-0.5376,0.3304,-0.2551,-0.2167,-0.8847,0.062,0.322,0.484,0.091,10.049,-20.687,19.049,3
0.6864,-0.5514,0.3692,-0.2972,-0.0507,-0.7509,0.0917,0.447,0.471,0.841,-30.15,24.449,-1.637,3
0.6374,-0.5796,0.3128,-0.3997,-0.1562,-0.9667,0.2089,-0.33,-0.365,-0.438,3.749,-22.637,29.849,3
0.7588,-0.597,0.2589,-0.0253,-0.4643,-0.9638,0.1162,-0.241,-0.839,-0.086,-3.75,6.763,-10.937,3
0.6961,-0.5323,0.3823,-0.2927,-0.2114,-0.8056,-0.0595,0.413,-0.122,0.581,-27.75,32.549,-4.037,3
0.6953,-0.533,0.3711,-0.3076,-0.2758,-0.8398,-0.0209,0.409,0.218,0.7,6.299,29.099,-23.687,3
0.6179,-0.5863,0.3397,-0.3986,0.0551,-1.1337,0.1801,-0.178,-0.02,0.426,-24.6,20.549,-7.787,3
0.7522,-0.5917,0.2865,-0.0431,-0.6069,-0.8183,0.0415,0.422,-0.153,0.029,-6.6,4.664,-5.237,3
0.683,-0.5608,0.3528,-0.3071,0.1513,-0.9326,0.2324,-0.15,-1.192,-0.491,-31.5,-22.787,-5.687,3
0.7453,-0.5927,0.2934,-0.0839,-0.3637,-0.9335,0.0971,0.011,-0.078,-0.002,14.999,-9.887,15.149,3
0.676,-0.5987,0.2785,-0.3269,0.0004,-0.9916,0.1059,-0.374,-0.565,0.012,4.649,-12.137,24.299,3
0.7102,-0.5187,0.3805,-0.2854,-0.1757,-0.955,-0.0258,0.188,0.333,-0.052,-27.75,32.549,-4.037,3
0.6369,-0.5817,0.3529,-0.3623,0.0654,-1.2949,0.0029,0.057,-1.057,0.907,-24.6,20.549,-7.787,3
0.7452,-0.5938,0.2914,-0.0835,-0.3691,-0.9663,0.0937,0.008,-0.094,-0.007,14.249,-9.137,14.849,3
0.7243,-0.5288,0.3432,-0.2791,-0.0551,-1.1831,0.249,-0.116,1.183,-0.751,10.049,-20.687,19.049,3
0.6585,-0.5802,0.3458,-0.3315,0.1904,-1.0332,0.0874,0.307,-0.543,0.921,-30.15,24.449,-1.637,3
0.7539,-0.5909,0.2835,-0.043,-0.4677,-0.6689,0.0424,0.054,-0.384,-0.202,-6.6,4.664,-5.237,3
0.7421,-0.5144,0.3433,-0.258,-0.2299,-1.1054,0.0151,0.211,0.519,0.17,16.799,-12.137,24.299,3
0.6865,-0.5796,0.3261,-0.2937,-0.062,-1.1201,0.0239,0.61,-0.879,1.18,-6.9,-25.937,-25.337,3
0.7421,-0.6008,0.2818,-0.093,-0.435,-0.9091,0.0913,-0.171,-0.417,-0.235,13.949,-9.437,14.399,3
0.7269,-0.5204,0.3601,-0.2663,-0.3505,-0.7905,-0.02,0.6,-0.014,0.389,16.799,-12.137,24.299,3
0.6996,-0.5276,0.3733,-0.3045,-0.3227,-0.8447,-0.0209,0.515,-0.134,0.598,6.299,29.099,-23.687,3
0.7533,-0.5975,0.2721,-0.0362,-0.3056,-1.0507,0.2558,-0.328,-0.414,-0.057,-6.6,4.664,-5.237,3
0.6308,-0.5841,0.3256,-0.3934,0.0761,-1.2539,0.1264,-0.148,0.066,0.448,11.099,-21.137,-28.337,3
0.6266,-0.5815,0.3544,-0.3788,-0.0415,-1.5107,-0.0537,-0.026,-0.745,0.888,-24.6,20.549,-7.787,3
0.7493,-0.5952,0.2868,-0.0436,-0.6308,-0.9965,-0.0126,0.502,0.066,0.282,-6.6,4.664,-5.237,3
0.7056,-0.5671,0.3278,-0.2699,0.0405,-0.9233,0.0512,0.357,-0.348,0.957,6.299,-5.837,32.399,3
0.701,-0.5893,0.3164,-0.247,0.1025,-0.8623,-0.0117,0.131,-0.518,0.712,26.536,-15.587,0.463,3
0.6311,-0.5771,0.3392,-0.3916,-0.0498,-1.3305,0.083,-0.034,0.684,0.673,11.099,-21.137,-28.337,3
0.7429,-0.5184,0.3384,-0.2544,-0.1293,-0.9809,0.0737,0.124,-0.393,-0.067,16.799,-12.137,24.299,3
0.7326,-0.5344,0.3336,-0.2575,-0.2568,-0.9321,0.0371,0.286,0.394,0.089,10.049,-20.687,19.049,3
0.7452,-0.5927,0.2935,-0.0842,-0.3613,-0.9526,0.1196,0.003,0.01,-0.012,14.999,-9.887,15.149,3
0.6415,-0.5872,0.3122,-0.3821,-0.1337,-1.0234,0.1704,-0.205,-0.167,-0.122,-9.9,-15.887,-26.087,3
0.7533,-0.6053,0.2533,-0.0429,-0.4335,-0.9121,0.1093,0.215,0.961,-0.172,-3.3,7.813,-8.987,3
0.6826,-0.5925,0.2935,-0.3109,-0.1679,-1.0449,-0.0361,0.147,0.022,0.888,4.649,-12.137,24.299,3
0.7355,-0.6195,0.2697,-0.0493,-0.2055,-1.0141,0.0737,0.205,-0.811,0.893,-17.1,0.613,-5.087,3
0.6834,-0.5356,0.3582,-0.343,-0.0883,-0.8769,0.2998,-0.334,0.339,-0.9,7.949,-22.787,22.799,3
0.6358,-0.6008,0.3109,-0.3715,0.081,-1.2924,0.2163,-0.332,0.063,0.68,-4.65,-25.487,-31.487,3
0.7457,-0.5934,0.2913,-0.0824,-0.3417,-0.9418,0.0996,-0.037,-0.103,-0.018,14.999,-9.887,15.149,3
0.7554,-0.6093,0.2394,-0.0274,-0.2622,-0.9287,0.164,0.266,0.891,-0.098,-3.3,7.813,-8.987,3
0.6771,-0.5849,0.3268,-0.3042,-0.0292,-1.1704,0.0292,0.591,-0.702,1.124,-6.9,-25.937,-25.337,3
0.7566,-0.6085,0.2384,-0.0175,-0.2446,-0.9072,0.1342,-0.24,0.247,-0.101,-3.75,6.763,-10.937,3
0.6936,-0.5359,0.3692,-0.3087,-0.2348,-0.8178,-0.0102,0.384,0.314,0.74,6.299,29.099,-23.687,3
0.7062,-0.5866,0.3174,-0.2373,-0.0634,-0.8945,-0.1176,0.144,-0.451,0.629,26.536,-15.587,0.463,3
0.7179,-0.5039,0.3737,-0.3014,-0.2329,-1.2583,0.2348,-0.218,0.909,-0.483,-4.95,-23.087,-32.387,3
0.7106,-0.5231,0.3776,-0.2803,-0.1259,-0.854,-0.0234,0.222,0.037,0.079,-27.75,32.549,-4.037,3
0.7197,-0.6196,0.2891,-0.1204,-0.1655,-0.9941,-0.0957,-0.415,-0.491,0.297,-17.1,0.613,-5.087,3
0.7013,-0.512,0.3884,-0.3081,-0.2333,-1.1093,0.1083,-0.025,0.612,-0.285,2.699,26.099,-22.187,3
0.7029,-0.5883,0.3169,-0.2436,0.0424,-0.8662,-0.0654,0.125,-0.413,0.711,26.536,-15.587,0.463,3
0.631,-0.5814,0.3315,-0.3921,0.0297,-1.2944,0.0981,-0.082,0.503,0.574,11.099,-21.137,-28.337,3
0.677,-0.5443,0.3492,-0.3511,-0.0463,-0.8754,0.2026,-0.109,-0.24,-0.751,7.949,-22.787,22.799,3
0.6349,-0.5825,0.3165,-0.3965,-0.1689,-0.9238,0.1611,0.011,0.759,-0.55,11.099,-21.137,-28.337,3
0.6166,-0.5846,0.3377,-0.4048,-0.0385,-1.0957,0.1494,-0.279,-0.497,0.14,-24.6,20.549,-7.787,3
0.7431,-0.5185,0.3375,-0.2547,-0.1455,-0.9946,0.0561,0.112,0.018,-0.011,16.799,-12.137,24.299,3
0.7451,-0.5923,0.2943,-0.0852,-0.3745,-0.9306,0.0942,0.009,0.001,0.003,14.999,-9.887,15.149,3
0.6958,-0.5613,0.3053,-0.3277,-0.2216,-0.9174,0.248,0.099,0.109,-0.585,8.249,-13.037,18.599,3
0.7232,-0.5395,0.3447,-0.2588,-0.1796,-0.6987,0.0224,0.696,1.136,0.743,-5.1,-25.187,-26.687,3
0.6782,-0.5423,0.3517,-0.3494,-0.0712,-0.8999,0.2177,-0.166,-0.233,-0.772,7.949,-22.787,22.799,3
0.7456,-0.593,0.2922,-0.083,-0.3496,-0.9384,0.0942,-0.006,-0.12,-0.021,14.999,-9.887,15.149,3
0.6485,-0.5824,0.3484,-0.3444,0.1445,-1.1142,0.0419,0.172,-1.248,0.836,-30.15,24.449,-1.637,3
0.7046,-0.5872,0.3173,-0.2405,-0.0214,-0.8886,-0.1025,0.141,-0.385,0.667,26.536,-15.587,0.463,3
0.7467,-0.6,0.2834,-0.0432,-0.4448,-1.1503,0.0634,0.651,0.662,0.456,-6.6,4.664,-5.237,3
0.7099,-0.5207,0.3699,-0.2964,-0.185,-1.0029,0.0415,0.141,0.344,0.233,2.699,26.099,-22.187,3
0.6356,-0.6009,0.3082,-0.3739,0.0825,-1.2651,0.2319,-0.335,-0.141,0.632,-4.65,-25.487,-31.487,3
0.6363,-0.5992,0.3206,-0.365,0.0048,-1.3344,0.1044,-0.265,0.149,0.749,-4.65,-25.487,-31.487,3
0.6298,-0.5815,0.3542,-0.3735,0.0073,-1.458,-0.038,0.012,-0.898,0.924,-24.6,20.549,-7.787,3
0.7102,-0.5228,0.3669,-0.2957,-0.1308,-0.9096,0.0673,0.092,0.233,0.125,2.699,26.099,-22.187,3
0.6936,-0.5181,0.3917,-0.3112,-0.3901,-1.3867,0.1787,-0.301,0.083,-0.241,-27.15,-25.487,-6.737,3
0.663,-0.5861,0.3102,-0.3471,-0.1484,-0.9252,0.1284,-0.236,-0.34,0.182,26.986,-19.787,-3.137,3
0.7086,-0.5244,0.367,-0.2967,-0.0947,-0.872,0.0522,0.158,-0.632,0.145,6.299,29.099,-23.687,3
0.6348,-0.5865,0.309,-0.3967,-0.1293,-1.0307,0.1801,-0.411,-0.48,-0.247,-4.65,-25.487,-31.487,3
0.7145,-0.5859,0.3142,-0.2176,-0.0546,-0.9399,-0.0815,-0.035,-0.543,0.436,-27.15,-4.037,-2.837,3
0.7453,-0.5934,0.2919,-0.0836,-0.3701,-0.9443,0.102,0.009,-0.003,-0.02,14.249,-9.137,14.849,3
0.7397,-0.609,0.2716,-0.0894,-0.373,-0.8798,0.0576,-0.251,-0.308,-0.268,13.499,-9.137,15.899,3
0.7533,-0.598,0.271,-0.0357,-0.3393,-1.0131,0.2197,-0.142,-0.222,-0.067,-6.6,4.664,-5.237,3
0.7203,-0.6214,0.2875,-0.1105,-0.2788,-0.9848,-0.0839,-0.089,-0.64,0.484,-17.1,0.613,-5.087,3
0.7399,-0.5112,0.3496,-0.2621,-0.1791,-1.0898,0.1245,-0.058,0.371,-0.08,16.799,-12.137,24.299,3
0.6309,-0.5831,0.3281,-0.3925,0.06,-1.2734,0.1289,-0.116,0.305,0.506,11.099,-21.137,-28.337,3
0.6626,-0.5821,0.3118,-0.3532,-0.1337,-0.8847,0.1855,-0.177,-0.453,-0.192,26.986,-19.787,-3.137,3
0.6778,-0.599,0.2825,-0.3189,-0.0297,-0.8876,0.0219,0.073,0.271,0.512,4.649,-12.137,24.299,3
0.6817,-0.5822,0.3266,-0.2992,-0.0581,-1.1503,0.0341,0.609,-0.785,1.148,-6.9,-25.937,-25.337,3
0.7326,-0.5284,0.3374,-0.2646,-0.0629,-1.0932,0.1958,-0.003,0.643,-0.499,10.049,-20.687,19.049,3
0.7031,-0.5775,0.3082,-0.2774,-0.0375,-0.8764,0.1401,0.395,0.019,0.763,7.799,-15.737,20.399,3
0.7527,-0.6047,0.2558,-0.046,-0.4433,-0.9248,0.1113,0.172,0.815,-0.187,-3.3,7.813,-8.987,3
0.7457,-0.5936,0.291,-0.0822,-0.3378,-0.9355,0.1049,-0.022,-0.08,-0.022,14.249,-9.137,14.849,3
0.6521,-0.5824,0.3467,-0.3394,0.2104,-1.0644,0.0703,0.205,-1.078,0.835,-30.15,24.449,-1.637,3
0.7381,-0.6137,0.2658,-0.0881,-0.3627,-0.9731,0.0556,-0.167,-0.26,-0.214,13.499,-9.137,15.899,3
0.666,-0.5479,0.3584,-0.3573,-0.0249,-0.7915,0.1406,-0.335,-0.562,-1.098,-2.1,-18.287,-32.237,3
0.6866,-0.5911,0.3222,-0.2742,0.0146,-1.2016,-0.019,-0.12,-1.115,0.782,26.536,-15.587,0.463,3
0.7024,-0.529,0.3797,-0.2871,-0.1523,-0.8784,-0.0224,0.248,-0.513,0.322,-27.75,32.549,-4.037,3
0.6627,-0.5842,0.3104,-0.3508,-0.1416,-0.9121,0.1635,-0.197,-0.303,0.013,26.986,-19.787,-3.137,3
0.6814,-0.5494,0.369,-0.3122,0.0585,-0.811,0.1972,-0.551,-0.844,-0.731,-31.5,-22.787,-5.687,3
0.7412,-0.6048,0.2765,-0.0909,-0.3901,-0.9028,0.062,-0.259,-0.361,-0.242,13.499,-9.137,15.899,3
0.6171,-0.5858,0.3376,-0.4024,-0.0039,-1.1064,0.1689,-0.257,-0.435,0.25,-24.6,20.549,-7.787,3
0.7282,-0.6246,0.257,-0.1158,-0.1157,-1.0483,0.1259,-0.008,0.422,-0.545,10.349,-8.837,18.299,3
0.6291,-0.5829,0.3217,-0.4011,-0.1083,-1.1083,0.1586,-0.215,-0.267,0.246,11.099,-21.137,-28.337,3
0.7402,-0.6076,0.2732,-0.0898,-0.3754,-0.8891,0.0615,-0.264,-0.318,-0.252,13.499,-9.137,15.899,3
0.6626,-0.5833,0.3108,-0.3521,-0.1279,-0.8881,0.1767,-0.187,-0.361,-0.09,26.986,-19.787,-3.137,3
0.6615,-0.5782,0.3468,-0.3282,0.1552,-1.0151,0.08,0.331,-0.319,0.998,-30.15,24.449,-1.637,3
0.7079,-0.5139,0.3868,-0.2915,-0.2255,-1.0439,0.0644,0.096,0.429,-0.014,-27.15,-25.487,-6.737,3
0.7444,-0.5915,0.2957,-0.092,-0.4497,-0.935,0.0937,0.123,0.4,-0.084,13.949,-9.437,14.399,3
0.6669,-0.5236,0.4001,-0.3475,-0.1215,-1.0175,0.3491,-0.622,0.019,-0.755,-5.25,21.899,-16.787,3
0.6914,-0.5233,0.3888,-0.311,-0.2846,-1.1777,0.2333,-0.429,-0.429,-0.511,-27.15,-25.487,-6.737,3
0.7308,-0.6235,0.2563,-0.1063,-0.1679,-0.9931,0.1811,-0.008,0.709,-0.322,10.349,-8.837,18.299,3
0.7443,-0.5912,0.2953,-0.0956,-0.4677,-0.9238,0.0864,-0.002,-0.101,-0.196,13.949,-9.437,14.399,3
0.755,-0.6082,0.2429,-0.0313,-0.3105,-0.9067,0.1547,0.289,1.061,-0.112,-3.3,7.813,-8.987,3
0.6845,-0.591,0.296,-0.3073,-0.1669,-1.0815,-0.0273,0.139,-0.107,0.967,4.649,-12.137,24.299,3
0.6689,-0.5635,0.3467,-0.3385,0.0839,-0.8637,0.121,-0.15,-0.335,-0.989,16.649,-17.987,-32.387,3
0.6551,-0.5801,0.3435,-0.341,-0.1718,-1.3369,-0.0493,0.109,-0.595,0.977,-11.55,-9.287,-23.987,3
0.7333,-0.5122,0.3624,-0.2615,-0.3125,-0.8383,-0.0087,0.52,0.082,0.476,-5.1,-25.187,-26.687,3
0.7455,-0.5937,0.2912,-0.0828,-0.3437,-0.9482,0.1079,0.021,0.077,-0.013,14.249,-9.137,14.849,3
0.7392,-0.6104,0.27,-0.089,-0.3623,-0.8872,0.061,-0.246,-0.297,-0.265,13.499,-9.137,15.899,3
0.7005,-0.5668,0.3085,-0.3044,-0.2944,-0.9477,0.2783,0.501,0.977,-0.738,11.099,-8.837,19.049,3
0.7442,-0.591,0.2966,-0.0932,-0.4775,-0.9321,0.0805,0.121,0.308,-0.101,13.949,-9.437,14.399,3
0.7594,-0.605,0.2385,-0.0153,-0.1318,-0.9404,0.2661,-0.311,-0.371,-0.197,-3.75,6.763,-10.937,3
0.7081,-0.5646,0.3293,-0.2668,0.0507,-0.8774,0.0756,0.366,-0.178,0.916,6.299,-5.837,32.399,3
0.6586,-0.5752,0.3296,-0.3556,-0.0087,-0.7836,0.2211,0.025,0.116,-0.912,16.649,-17.987,-32.387,3
0.7556,-0.6102,0.2365,-0.024,-0.228,-0.9296,0.1557,0.215,0.673,-0.104,-3.3,7.813,-8.987,3
0.7092,-0.5169,0.3761,-0.2971,-0.187,-1.0483,0.0278,0.073,0.446,0.281,2.699,26.099,-22.187,3
0.6355,-0.5841,0.3102,-0.3981,-0.1367,-1.0039,0.186,-0.39,-0.429,-0.324,-4.65,-25.487,-31.487,3
0.6735,-0.5805,0.335,-0.3114,0.0498,-1.1782,0.0029,0.233,-1.382,0.772,-11.55,-9.287,-23.987,3
0.7451,-0.5927,0.2938,-0.0843,-0.3784,-0.9418,0.1108,0.0,0.001,0.004,14.999,-9.887,15.149,3
0.6284,-0.5816,0.321,-0.4044,-0.1606,-1.0371,0.1997,-0.149,-0.096,0.098,11.099,-21.137,-28.337,3
0.6608,-0.5546,0.3349,-0.3788,-0.1201,-0.8432,0.1899,-0.034,0.363,-0.722,3.749,-22.637,29.849,3
0.6809,-0.5126,0.401,-0.3356,-0.2924,-1.309,0.1376,-0.117,0.886,-0.466,-5.25,21.899,-16.787,3
0.7593,-0.6007,0.2494,-0.0196,-0.3022,-0.9848,0.1889,-0.39,-1.162,-0.253,-3.75,6.763,-10.937,3
0.6624,-0.5313,0.3964,-0.3486,-0.0234,-0.9648,0.2553,-0.643,-0.371,-0.676,-5.25,21.899,-16.787,3
0.6569,-0.5738,0.3465,-0.3448,0.246,-1.0844,0.1425,0.086,-0.809,0.68,11.399,-27.737,-25.637,3
0.6297,-0.4029,0.4413,-0.4961,-0.2368,-0.6933,0.1074,0.287,-0.133,0.614,31.503,5.895,23.007,4
0.5064,-0.3687,0.4362,-0.6459,-0.2807,-1.0473,0.4033,-0.18,-0.342,-0.277,-15.173,-28.647,-12.908,4
0.5637,-0.4415,0.4415,-0.5405,0.0346,-1.0703,0.1748,0.04,-0.661,0.089,16.953,22.095,22.707,4
0.5877,-0.4477,0.4209,-0.5261,0.2382,-0.9985,0.2124,0.152,-0.62,0.457,30.303,-4.141,1.407,4
0.5677,-0.4464,0.3729,-0.5824,0.0751,-0.77,0.1972,-0.18,-0.251,0.668,-10.139,-29.501,-26.622,4
0.6312,-0.4213,0.4287,-0.4899,-0.1083,-1.0541,0.1499,-0.089,-0.774,0.036,-19.783,1.709,-9.542,4
0.6172,-0.453,0.3954,-0.5072,0.2709,-0.725,0.2783,0.469,0.649,1.34,-1.975,-26.433,-15.497,4
0.5327,-0.4072,0.4243,-0.6084,-0.1865,-1.0527,0.4316,-0.104,0.57,-0.408,-20.423,15.889,-4.208,4
0.594,-0.4475,0.4067,-0.5304,0.1142,-1.0664,0.3657,0.307,0.677,-0.547,-14.723,-31.197,-9.458,4
0.5646,-0.4113,0.4418,-0.5627,-0.038,-0.7885,0.2719,0.182,0.597,-0.518,26.703,-18.841,9.207,4
0.589,-0.4546,0.4068,-0.5298,-0.0756,-0.9243,0.3095,0.012,-0.09,0.015,-25.333,0.809,-6.992,4
0.5915,-0.4599,0.3957,-0.5309,-0.0205,-1.0166,0.3559,-0.262,0.116,-0.256,-7.283,-27.384,-26.038,4
0.6202,-0.4316,0.4175,-0.5046,-0.0395,-0.8461,0.2836,-0.073,0.526,-1.264,-13.523,32.089,-7.208,4
0.5278,-0.4222,0.4333,-0.596,-0.1215,-1.1728,0.1855,-0.466,-1.124,0.419,-23.123,18.289,-3.608,4
0.5896,-0.4599,0.3961,-0.5327,-0.0493,-0.9877,0.3222,0.007,0.205,-0.218,-7.283,-27.384,-26.038,4
0.5741,-0.403,0.4553,-0.5482,-0.0673,-0.8876,0.4594,-0.002,-0.175,-0.606,30.303,-18.991,10.107,4
0.5033,-0.388,0.4476,-0.629,-0.1801,-1.2202,0.1875,-0.586,-1.528,0.417,-20.233,1.395,11.157,4
0.6113,-0.4688,0.4144,-0.4844,-0.0893,-0.9946,0.163,-0.328,-0.347,0.755,-3.988,-31.434,-25.886,4
0.6229,-0.4761,0.3722,-0.4966,0.2006,-1.0161,0.2221,0.315,0.68,0.253,-5.48,-25.853,-28.613,4
0.5212,-0.3944,0.4179,-0.6308,-0.06,-0.9038,0.2431,0.228,1.476,-0.286,-20.233,1.395,11.157,4
0.6206,-0.4744,0.3735,-0.5001,0.0141,-1.0766,0.1855,-0.012,-0.691,-0.057,-5.48,-25.853,-28.613,4
0.5931,-0.4499,0.4056,-0.5302,-0.0717,-1.0395,0.392,0.145,0.119,0.054,-25.333,0.809,-6.992,4
0.6091,-0.4302,0.4295,-0.5091,0.0034,-0.9194,0.1289,0.351,0.187,0.937,30.303,-4.141,1.407,4
0.6011,-0.4684,0.388,-0.5182,0.3999,-0.9682,0.2358,0.214,-0.91,1.33,-1.975,-26.433,-15.497,4
0.5115,-0.3994,0.444,-0.6176,-0.0395,-1.2768,0.1606,-0.55,-1.815,0.461,-20.233,1.395,11.157,4
0.5815,-0.4527,0.415,-0.5334,0.2875,-1.017,0.2812,0.011,-0.077,-0.732,-6.583,3.795,4.257,4
0.5834,-0.4508,0.4172,-0.5312,0.2456,-1.0698,0.3085,-0.121,-0.558,-0.657,-6.583,3.795,4.257,4
0.5903,-0.4476,0.4201,-0.524,0.2255,-0.9628,0.2124,0.178,-0.461,0.559,30.303,-4.141,1.407,4
0.6669,-0.4129,0.4275,-0.4492,-0.1362,-1.1635,0.416,-0.093,0.582,-0.361,-13.523,32.089,-7.208,4
0.5914,-0.4531,0.4061,-0.529,0.0068,-0.9516,0.2988,0.132,-0.03,0.099,-25.333,0.809,-6.992,4
0.5795,-0.4152,0.4416,-0.5446,0.0937,-1.0717,0.3022,0.244,-0.418,-0.26,30.303,-18.991,10.107,4
0.6102,-0.4273,0.4335,-0.507,-0.0166,-0.7446,0.1235,0.444,0.445,1.551,31.503,5.895,23.007,4
0.6237,-0.4748,0.3801,-0.4908,0.3085,-0.9584,0.2207,0.407,-0.846,1.632,-23.123,18.289,-3.608,4
0.5994,-0.4302,0.4303,-0.5199,-0.0947,-0.7504,0.1748,0.207,0.226,1.004,4.366,17.445,-4.142,4
0.6255,-0.4582,0.3898,-0.4967,-0.1806,-0.9843,0.2758,0.015,-0.019,-0.053,-4.13,-26.303,-28.313,4
0.5519,-0.4136,0.4297,-0.5826,-0.163,-0.9487,0.393,-0.251,-0.215,-0.231,24.303,-18.991,2.757,4
0.6065,-0.3997,0.4541,-0.5158,-0.1079,-1.1503,0.2607,0.215,0.108,-0.466,30.303,-18.991,10.107,4
0.5785,-0.4156,0.4402,-0.5465,0.1279,-1.0068,0.2861,0.205,0.05,-0.425,26.703,-18.841,9.207,4
0.6158,-0.4036,0.4468,-0.508,-0.1474,-1.0717,0.2939,0.097,0.461,-0.706,-6.583,3.795,4.257,4
0.6258,-0.4447,0.4318,-0.4733,-0.2656,-1.0434,0.2036,0.013,-0.33,0.444,1.869,-30.669,-25.897,4
0.6636,-0.4304,0.4015,-0.4614,0.0214,-1.0078,0.3398,0.36,0.203,0.291,-8.273,15.439,-14.708,4
0.6239,-0.4633,0.3784,-0.5027,0.0146,-1.0971,0.3432,0.613,1.019,0.239,-7.283,-27.384,-26.038,4
0.5986,-0.4622,0.4104,-0.5094,0.1469,-0.8505,0.206,0.29,0.912,-0.692,12.582,28.441,-19.077,4
0.5881,-0.4586,0.3962,-0.5354,-0.0952,-0.9213,0.2958,0.105,0.243,-0.25,-4.741,-25.307,-25.87,4
0.5531,-0.4242,0.4275,-0.5754,-0.0136,-0.9101,0.2895,-0.186,-0.223,0.113,24.303,-18.991,2.757,4
0.6019,-0.4583,0.4287,-0.4937,0.122,-0.9672,0.2734,0.073,-0.232,-0.524,24.753,14.895,25.707,4
0.5629,-0.4468,0.3682,-0.5897,0.0878,-0.935,0.2446,-0.207,0.035,0.533,-10.139,-29.501,-26.622,4
0.6245,-0.4076,0.441,-0.4992,-0.2558,-0.7011,0.0722,0.563,0.072,0.974,31.503,5.895,23.007,4
0.5915,-0.4386,0.3943,-0.5496,-0.1811,-0.6655,0.3017,0.098,0.812,-0.534,-3.923,27.589,-23.108,4
0.5555,-0.41,0.423,-0.5866,-0.1367,-0.8906,0.4145,-0.042,0.75,-0.456,9.016,26.745,-14.342,4
0.5709,-0.4514,0.4136,-0.5468,0.2724,-0.8037,0.225,0.256,1.004,-0.877,-16.183,4.095,9.357,4
0.571,-0.4455,0.4358,-0.5342,0.0297,-1.0078,0.121,0.164,-0.861,0.354,16.953,22.095,22.707,4
0.664,-0.4276,0.4023,-0.4629,0.0361,-1.0146,0.3525,0.45,0.506,0.209,-8.273,15.439,-14.708,4
0.5847,-0.4431,0.4231,-0.5316,0.1386,-1.0971,0.3208,-0.452,-1.067,-0.706,-6.583,3.795,4.257,4
0.6471,-0.4338,0.4021,-0.4809,0.0053,-0.4907,0.1313,0.359,0.987,0.827,-24.473,26.539,-1.958,4
0.6233,-0.4724,0.3743,-0.4981,0.1318,-1.0659,0.2534,0.422,0.777,0.349,-5.48,-25.853,-28.613,4
0.628,-0.4448,0.431,-0.4709,-0.2768,-1.1528,0.1909,0.04,-0.542,0.444,1.869,-30.669,-25.897,4
0.6053,-0.4595,0.4177,-0.4978,0.1713,-0.8901,0.3417,-0.249,-0.326,-0.746,12.582,28.441,-19.077,4
0.5246,-0.399,0.4152,-0.6269,-0.0351,-0.8686,0.2456,0.27,1.404,-0.375,-16.183,4.095,9.357,4
0.6049,-0.4514,0.4001,-0.5196,-0.083,-0.9418,0.2246,-0.872,-0.568,0.648,-3.988,-31.434,-25.886,4
0.5531,-0.4108,0.4303,-0.583,-0.1323,-0.9575,0.3989,-0.189,-0.077,-0.312,24.303,-18.991,2.757,4
0.6169,-0.4179,0.4353,-0.5051,-0.1064,-0.8847,0.1723,0.354,0.256,0.607,30.303,-4.141,1.407,4
0.5946,-0.465,0.3943,-0.524,0.1108,-0.9477,0.31,-0.12,-0.439,0.073,-26.683,1.109,-7.142,4
0.6021,-0.4352,0.448,-0.4972,0.0375,-0.9531,0.3247,-0.529,-0.386,-0.88,31.653,12.495,20.607,4
0.6208,-0.4413,0.4268,-0.4873,0.0356,-0.9233,0.2744,-0.657,-0.245,-1.144,12.582,28.441,-19.077,4
0.5867,-0.4374,0.3945,-0.5556,-0.1372,-0.7695,0.2871,0.129,0.489,-0.598,-3.923,27.589,-23.108,4
0.6177,-0.4508,0.3867,-0.5153,-0.0742,-0.8569,0.333,0.155,1.395,-0.43,-7.283,-27.384,-26.038,4
0.6129,-0.4499,0.4238,-0.4921,0.1274,-0.8706,0.2929,-0.515,0.011,-1.132,12.582,28.441,-19.077,4
0.5567,-0.4073,0.4313,-0.5813,-0.121,-0.9184,0.3281,-0.036,-0.049,-0.219,24.303,-18.991,2.757,4
0.5595,-0.4221,0.416,-0.5792,-0.0297,-0.6772,0.2094,0.504,1.587,-0.697,-14.723,-31.197,-9.458,4
0.6257,-0.4592,0.3889,-0.4962,-0.0546,-0.9853,0.2939,-0.004,0.005,-0.03,-4.13,-26.303,-28.313,4
0.5503,-0.4119,0.4542,-0.5666,-0.2885,-1.1987,0.3295,-0.249,-0.002,0.071,19.053,16.245,26.157,4
0.5954,-0.4483,0.4189,-0.5186,0.2089,-0.8374,0.269,0.155,0.089,1.519,-28.483,0.945,14.907,4
0.5884,-0.469,0.3996,-0.5234,0.0917,-1.1123,0.0659,0.139,-2.057,0.904,-4.523,22.189,-16.658,4
0.5548,-0.4531,0.3951,-0.575,-0.0537,-0.9921,0.3735,0.204,1.314,-0.335,-4.741,-25.307,-25.87,4
0.6105,-0.4629,0.3894,-0.5111,0.3583,-0.8383,0.2846,0.46,-0.115,1.378,-1.975,-26.433,-15.497,4
0.5611,-0.4087,0.4416,-0.5683,-0.1157,-0.8041,0.3295,0.265,0.533,-0.382,26.703,-18.841,9.207,4
0.6249,-0.4588,0.3898,-0.4969,-0.0263,-0.9633,0.2836,-0.027,-0.021,-0.038,-6.08,-26.903,-28.463,4
0.609,-0.4617,0.3829,-0.5188,0.1269,-0.893,0.3217,0.441,1.568,-0.316,1.164,30.263,-25.49,4
0.5552,-0.4258,0.4288,-0.5713,-0.039,-1.018,0.2924,-0.183,-0.211,0.251,24.303,-18.991,2.757,4
0.6082,-0.4676,0.4112,-0.492,-0.0678,-0.977,0.1616,-0.587,-0.425,0.62,-3.988,-31.434,-25.886,4
0.632,-0.451,0.4092,-0.4791,0.0234,-0.9658,0.1743,-0.047,-0.036,-0.219,-19.033,2.459,-11.042,4
0.6208,-0.4252,0.4249,-0.5031,-0.0068,-0.7558,0.1489,0.515,0.461,0.664,17.853,31.095,23.607,4
0.616,-0.4344,0.4161,-0.5085,0.0571,-0.7949,0.2993,-0.262,0.243,-1.301,-13.523,32.089,-7.208,4
0.4936,-0.3716,0.4503,-0.6444,-0.2905,-1.0839,0.3544,-0.401,-0.485,0.124,-20.233,1.395,11.157,4
0.6078,-0.4511,0.4085,-0.5099,-0.039,-0.9165,0.3627,-0.165,0.147,-0.632,-19.783,2.759,-11.342,4
0.6251,-0.4251,0.4155,-0.5057,-0.039,-0.6826,0.1342,0.497,1.308,1.311,-1.975,-26.433,-15.497,4
0.6249,-0.4596,0.389,-0.4968,-0.0385,-0.9716,0.2749,0.002,-0.036,0.013,-6.08,-26.903,-28.463,4
0.5878,-0.4495,0.4261,-0.5203,0.059,-1.0122,0.1147,0.327,-1.163,0.673,16.953,22.095,22.707,4
0.556,-0.4158,0.4449,-0.5656,-0.2182,-0.9648,0.332,0.284,0.46,-0.041,19.053,16.245,26.157,4
0.5889,-0.4592,0.3962,-0.534,-0.0776,-0.956,0.3095,0.09,0.243,-0.213,-4.741,-25.307,-25.87,4
0.6006,-0.45,0.4198,-0.5103,0.1357,-0.9687,0.1987,0.336,-0.768,0.725,17.853,31.095,23.607,4
0.6241,-0.4208,0.4134,-0.5122,-0.1801,-0.9062,0.3642,-0.353,0.465,-1.164,-10.373,15.439,-10.358,4
0.5264,-0.4014,0.4477,-0.6009,-0.1787,-1.1372,0.3647,-0.466,-0.06,-0.265,9.016,22.095,-7.742,4
0.5395,-0.4374,0.4367,-0.5716,0.0312,-1.0732,0.1162,-0.183,-1.876,0.278,9.016,22.095,-7.742,4
0.6642,-0.4133,0.4292,-0.4513,-0.122,-1.1801,0.3627,-0.261,0.628,-0.429,-13.523,32.089,-7.208,4
0.5246,-0.4074,0.4477,-0.5985,-0.1274,-1.1313,0.3203,-0.534,-0.5,-0.229,9.016,22.095,-7.742,4
0.6645,-0.423,0.4172,-0.453,-0.0498,-0.9458,0.3159,-0.093,-0.453,0.236,-24.473,26.539,-1.958,4
0.6212,-0.4724,0.3843,-0.4931,0.1396,-0.7348,0.2109,-0.071,-0.187,-1.025,1.164,30.263,-25.49,4
0.6176,-0.4163,0.4387,-0.5025,-0.1586,-0.7431,0.0781,0.572,0.335,1.326,31.503,5.895,23.007,4
0.5904,-0.4601,0.396,-0.5317,-0.0395,-1.0034,0.3266,-0.127,0.171,-0.233,-7.283,-27.384,-26.038,4
0.6604,-0.4163,0.4129,-0.4688,-0.1347,-1.2578,0.4091,0.005,0.554,-0.228,-8.273,15.439,-14.708,4
0.6007,-0.4479,0.4391,-0.4956,0.0874,-1.0869,0.3403,-0.26,-0.938,-0.425,24.753,14.895,25.707,4
0.6642,-0.4221,0.4181,-0.4535,0.0717,-0.978,0.3222,0.067,0.322,0.15,-24.473,26.539,-1.958,4
0.6266,-0.4062,0.454,-0.4859,-0.0869,-1.1269,0.2807,-0.49,-0.26,-0.596,31.653,12.495,20.607,4
0.5237,-0.3775,0.4305,-0.6306,-0.2705,-0.8374,0.4184,0.235,1.096,-0.432,-15.173,-28.647,-12.908,4
0.6196,-0.4725,0.3755,-0.5016,-0.0122,-1.0112,0.1738,0.078,-0.583,-0.228,-5.48,-25.853,-28.613,4
0.6338,-0.4291,0.419,-0.4883,-0.0922,-1.1152,0.3388,-0.108,0.846,-1.34,-13.523,32.089,-7.208,4
0.6205,-0.466,0.3838,-0.5003,-0.0683,-0.8046,0.1708,-0.102,-0.187,-0.523,-5.48,-25.853,-28.613,4
0.5921,-0.458,0.4111,-0.52,0.1494,-0.7021,0.2158,0.388,1.061,-0.813,12.582,28.441,-19.077,4
0.6111,-0.4226,0.4521,-0.4934,-0.059,-0.9086,0.3686,-0.591,0.003,-0.973,31.653,12.495,20.607,4
0.5035,-0.373,0.4362,-0.6457,-0.311,-0.9658,0.3959,-0.254,1.3,-0.221,-20.233,1.395,11.157,4
0.5982,-0.4502,0.3963,-0.5313,-0.2602,-1.059,0.4541,-0.195,-0.129,-0.225,-7.283,-27.384,-26.038,4
0.5681,-0.4443,0.4378,-0.5367,0.0366,-1.017,0.1567,0.121,-0.782,0.232,16.953,22.095,22.707,4
0.5952,-0.4659,0.3939,-0.5229,0.1362,-0.9414,0.2832,-0.111,-0.295,0.132,-26.683,1.109,-7.142,4
0.5975,-0.4519,0.3957,-0.5311,-0.2324,-1.062,0.4838,-0.219,-0.22,-0.241,-7.283,-27.384,-26.038,4
0.5923,-0.4559,0.4015,-0.5291,-0.0156,-0.9951,0.3999,-0.191,-0.424,-0.252,-26.683,1.109,-7.142,4
0.6636,-0.4224,0.406,-0.465,-0.0019,-1.0708,0.3461,0.134,0.588,0.282,-8.273,15.439,-14.708,4
0.5534,-0.4409,0.3778,-0.597,0.1132,-1.1181,0.436,0.161,-1.489,-0.273,-7.589,-26.201,-26.172,4
0.6046,-0.463,0.391,-0.5168,0.1757,-0.9399,0.2285,-0.162,-0.604,-0.304,-16.823,14.539,-5.708,4
0.6201,-0.4031,0.4479,-0.5022,-0.1308,-1.122,0.3017,0.146,0.098,-0.53,-6.583,3.795,4.257,4
0.6631,-0.4181,0.4106,-0.4656,-0.0854,-1.2524,0.3959,0.081,0.317,-0.008,-8.273,15.439,-14.708,4
0.6341,-0.415,0.4291,-0.4913,-0.0112,-1.0195,0.2758,0.276,0.438,0.474,0.316,9.045,-0.542,4
0.5747,-0.453,0.4135,-0.5417,0.309,-0.8583,0.225,0.122,0.789,-0.873,-16.183,4.095,9.357,4
0.5864,-0.447,0.3847,-0.555,0.0278,-0.9306,0.1044,-0.222,-0.268,1.08,-10.139,-29.501,-26.622,4
0.6251,-0.459,0.3892,-0.4969,-0.1743,-0.9296,0.2675,-0.045,-0.086,-0.188,-5.48,-25.853,-28.613,4
0.5498,-0.4074,0.4266,-0.5913,-0.1972,-0.9658,0.3818,-0.156,0.8,-0.396,9.016,26.745,-14.342,4
0.5469,-0.4335,0.4244,-0.5767,-0.1738,-1.0922,0.2729,-0.329,-0.687,0.242,-2.273,23.689,-22.058,4
0.5439,-0.4276,0.4247,-0.5838,-0.1826,-1.1425,0.3696,-0.383,-0.373,0.185,-2.273,23.689,-22.058,4
0.6645,-0.4231,0.4172,-0.453,0.0332,-0.9575,0.3364,-0.017,0.009,0.087,-24.473,26.539,-1.958,4
0.5949,-0.4715,0.3956,-0.5168,0.1621,-1.1064,0.0869,0.211,-1.95,0.924,-4.523,22.189,-16.658,4
0.5504,-0.414,0.4547,-0.5645,-0.2666,-1.1943,0.3579,-0.224,-0.226,0.021,19.053,16.245,26.157,4
0.5628,-0.4343,0.3942,-0.5823,-0.0058,-0.9638,0.3383,-0.232,0.964,-0.26,-3.923,27.589,-23.108,4
0.528,-0.3995,0.447,-0.6014,-0.2192,-1.1816,0.413,-0.435,0.076,-0.194,9.016,22.095,-7.742,4
0.6023,-0.4543,0.4336,-0.4926,0.0673,-1.0903,0.312,-0.149,-0.838,-0.265,24.753,14.895,25.707,4
0.5853,-0.4605,0.3956,-0.5372,0.2236,-0.684,0.2373,0.002,1.343,-0.663,-16.823,14.539,-5.708,4
0.6351,-0.4378,0.4173,-0.4802,0.0019,-1.0595,0.2397,-0.174,-0.386,-0.124,-19.783,1.709,-9.542,4
0.5942,-0.4578,0.395,-0.5302,-0.0419,-1.0239,0.4497,-0.383,-0.115,-0.267,-7.283,-27.384,-26.038,4
0.5995,-0.459,0.4025,-0.5174,-0.0688,-1.0043,0.1801,0.232,0.072,0.075,-19.783,2.759,-11.342,4
0.575,-0.4474,0.3768,-0.5719,0.0825,-0.7968,0.1372,-0.282,-0.436,0.878,-10.139,-29.501,-26.622,4
0.5873,-0.4545,0.4139,-0.5263,0.2695,-0.9023,0.2866,0.102,-0.537,1.404,-28.483,0.945,14.907,4
0.6044,-0.4565,0.3961,-0.5189,0.1196,-0.9101,0.2939,-0.346,-1.029,-0.402,-10.373,15.439,-10.358,4
0.6187,-0.4752,0.3818,-0.4954,0.1821,-0.6689,0.2021,-0.165,-0.188,-0.998,1.164,30.263,-25.49,4
0.5484,-0.4251,0.4121,-0.5903,-0.2094,-1.1523,0.5078,-0.441,1.01,0.014,-2.273,23.689,-22.058,4
0.6002,-0.4439,0.4421,-0.4969,0.0742,-1.0371,0.3295,-0.328,-0.827,-0.6,24.753,14.895,25.707,4
0.5696,-0.4585,0.4117,-0.5438,-0.0112,-1.1181,0.0961,-0.11,-1.832,0.626,-4.523,22.189,-16.658,4
0.5108,-0.3806,0.4283,-0.6408,-0.2133,-0.9565,0.3461,-0.042,1.548,-0.198,-20.233,1.395,11.157,4
0.655,-0.4195,0.4229,-0.4648,-0.1376,-1.1391,0.35,0.188,0.023,-1.111,-13.523,32.089,-7.208,4
0.6096,-0.4685,0.4128,-0.4881,-0.0771,-0.997,0.1518,-0.445,-0.395,0.704,-3.988,-31.434,-25.886,4
0.634,-0.4472,0.4112,-0.4783,0.0336,-1.0258,0.2021,-0.166,-0.289,-0.218,-19.783,1.709,-9.542,4
0.5077,-0.3786,0.4326,-0.6415,-0.25,-1.1811,0.4692,-0.353,-0.824,-0.114,-15.173,-28.647,-12.908,4
0.5959,-0.4688,0.3886,-0.5234,0.3945,-1.0048,0.1982,0.09,-1.307,1.281,-7.692,-26.187,-14.49,4
0.6324,-0.4238,0.4267,-0.4881,-0.0654,-1.0668,0.1645,-0.132,-0.782,-0.001,-19.783,1.709,-9.542,4
0.5694,-0.4658,0.3872,-0.5555,0.0073,-0.9301,0.3603,-0.02,0.464,-0.41,-4.741,-25.307,-25.87,4
0.5984,-0.455,0.4043,-0.5208,-0.0112,-1.0283,0.3549,-0.009,0.424,-0.155,-25.333,0.809,-6.992,4
0.5544,-0.4253,0.4283,-0.5728,-0.0356,-0.9682,0.2929,-0.176,-0.192,0.214,24.303,-18.991,2.757,4
0.6204,-0.4185,0.4293,-0.5054,-0.2416,-0.7368,0.0395,0.132,-0.772,0.596,4.366,17.445,-4.142,4
0.6011,-0.4655,0.3895,-0.5197,0.2607,-0.8369,0.2036,-0.117,0.305,-0.588,-16.823,14.539,-5.708,4
0.5982,-0.4454,0.391,-0.5391,-0.0581,-0.9824,0.2275,-0.089,-0.379,0.829,-3.988,-31.434,-25.886,4
0.6076,-0.4266,0.4512,-0.495,-0.0366,-0.9155,0.3598,-0.61,-0.028,-0.973,31.653,12.495,20.607,4
0.6157,-0.3933,0.4577,-0.5065,-0.2216,-1.1435,0.332,-0.253,0.232,-0.341,27.903,-24.091,13.857,4
0.5971,-0.4497,0.4076,-0.5243,0.1376,-1.1547,0.3696,0.154,0.057,-0.492,-14.723,-31.197,-9.458,4
0.547,-0.4058,0.4289,-0.5933,-0.2241,-0.9843,0.3642,-0.191,0.838,-0.333,9.016,26.745,-14.342,4
0.5924,-0.4539,0.4029,-0.5296,-0.0522,-1.0258,0.4252,-0.191,-0.371,-0.24,-26.683,1.109,-7.142,4
0.646,-0.4366,0.4047,-0.4777,-0.2456,-0.6474,-0.0175,-0.11,0.097,0.612,-8.273,15.439,-14.708,4
0.583,-0.4364,0.393,-0.5612,-0.1079,-0.7954,0.2685,0.22,0.325,-0.56,-3.923,27.589,-23.108,4
0.6379,-0.3825,0.4581,-0.4865,-0.2084,-1.1035,0.2495,0.193,0.544,0.601,31.503,5.895,23.007,4
0.5179,-0.3898,0.421,-0.6344,-0.1035,-0.9448,0.2641,0.168,1.49,-0.237,-20.233,1.395,11.157,4
0.6001,-0.4466,0.3902,-0.5367,-0.1196,-0.6962,0.291,0.564,1.596,-0.479,-3.923,27.589,-23.108,4
0.5095,-0.3863,0.4311,-0.6365,-0.1611,-1.225,0.4453,-0.492,-0.872,0.006,-15.173,-28.647,-12.908,4
0.5445,-0.4293,0.4249,-0.5817,-0.1635,-1.103,0.3198,-0.346,-0.413,0.174,-2.273,23.689,-22.058,4
0.6291,-0.4091,0.4332,-0.499,-0.2265,-0.83,0.1044,0.028,0.062,0.324,17.853,31.095,23.607,4
0.626,-0.4589,0.3894,-0.4957,-0.0458,-0.9677,0.269,-0.017,0.06,0.025,-4.88,-25.553,-26.513,4
0.5503,-0.4152,0.4548,-0.5637,-0.2275,-1.1513,0.3657,-0.229,-0.209,-0.016,16.953,22.095,22.707,4
0.6349,-0.4416,0.4149,-0.479,0.0122,-1.0253,0.226,-0.161,-0.381,-0.177,-19.783,1.709,-9.542,4
0.6461,-0.5882,0.2158,-0.4357,0.4682,-1.0483,0.3598,-1.417,1.621,-0.256,-19.554,7.175,12.509,5
0.6186,-0.6669,0.1446,-0.3891,0.2636,-0.9619,0.1074,-0.176,-0.075,-0.115,-28.154,-26.117,-3.746,5
0.6551,-0.6397,0.1218,-0.3831,0.1489,-1.0043,0.1279,0.636,0.96,0.447,-30.554,-29.417,-4.946,5
0.553,-0.7065,0.1116,-0.4271,0.6035,-1.1684,0.0444,0.189,-0.357,0.84,23.782,12.875,16.859,5
0.5325,-0.7184,0.1099,-0.4336,0.5737,-1.0219,-0.0815,0.784,-0.018,0.907,21.232,-31.661,20.459,5
0.5525,-0.6928,0.1027,-0.4517,0.3125,-0.9643,0.145,-0.594,0.244,-0.701,32.482,15.275,8.609,5
0.6415,-0.6298,0.1502,-0.4112,0.2343,-0.8935,0.2412,-0.447,-1.623,-1.114,-12.554,-30.917,-17.396,5
0.6179,-0.6813,0.1217,-0.3729,0.3935,-0.9252,-0.0268,0.087,-0.528,-0.076,-26.204,-25.967,-2.396,5
0.6565,-0.662,0.1117,-0.3439,0.7109,-0.9218,0.1625,1.702,-0.359,1.48,24.232,17.075,16.859,5
0.542,-0.7004,0.1044,-0.4524,0.4067,-1.0678,0.1567,-0.29,-0.454,0.21,32.482,15.275,8.609,5
0.6614,-0.5749,0.2174,-0.4296,0.2416,-0.9506,0.0654,-0.018,0.746,0.22,12.232,3.125,-26.327,5
0.6456,-0.6685,0.0899,-0.3578,0.3461,-1.0942,0.1728,0.34,1.351,0.173,-28.754,-27.167,-0.596,5
0.5903,-0.6898,0.1039,-0.4059,0.4067,-0.9589,0.1108,-1.08,0.413,-1.515,28.282,-32.111,11.009,5
0.6974,-0.5745,0.1892,-0.3841,0.2441,-1.0537,0.1762,0.129,-0.475,-0.162,-19.304,-31.067,-14.696,5
0.6342,-0.6182,0.1961,-0.4206,0.4667,-0.9311,0.1704,-0.183,0.25,-0.032,-6.504,31.775,-3.69,5
0.6401,-0.5898,0.2222,-0.4393,0.3959,-1.0629,0.3808,-1.354,1.413,-0.302,-19.554,7.175,12.509,5
0.6006,-0.675,0.1234,-0.4102,0.3129,-0.664,0.018,-0.395,-2.078,-1.251,-6.504,31.775,-3.69,5
0.6542,-0.6492,0.1267,-0.3664,0.5395,-0.7719,0.08,0.406,2.117,0.715,-24.739,23.232,-2.364,5
0.6061,-0.6007,0.2341,-0.4656,0.3217,-0.874,0.3002,-0.095,-1.582,0.026,5.632,-21.611,16.259,5
0.6931,-0.582,0.1793,-0.3853,0.0878,-0.9628,0.1757,0.269,1.053,0.532,-19.304,-31.067,-14.696,5
0.6607,-0.5845,0.2023,-0.4251,0.2495,-0.8017,-0.0009,0.323,0.935,0.751,12.232,3.125,-26.327,5
0.5797,-0.6349,0.1695,-0.4815,0.499,-0.8789,0.1811,0.282,-0.562,0.281,0.982,-24.011,23.759,5
0.6189,-0.6823,0.1159,-0.3712,0.3281,-0.9619,-0.0644,-0.013,-0.119,0.013,-29.654,-27.617,-1.496,5
0.6437,-0.626,0.1566,-0.4112,0.2407,-0.7973,-0.0175,0.619,1.11,0.832,-29.304,-30.011,9.059,5
0.612,-0.6865,0.1055,-0.3779,0.6083,-0.9633,-0.0683,1.587,-1.787,1.139,-28.304,29.669,1.953,5
0.5762,-0.6954,0.1017,-0.417,0.4204,-1.0268,0.1684,-1.193,0.633,-1.486,28.282,-32.111,11.009,5
0.6595,-0.5847,0.2472,-0.4025,0.1259,-0.934,0.2197,-0.543,-0.754,-0.477,-26.304,30.425,-0.54,5
0.6576,-0.5906,0.1995,-0.4228,0.2065,-0.8061,0.0268,0.201,1.68,0.751,-29.304,-30.011,9.059,5
0.5743,-0.6328,0.1757,-0.4885,0.4428,-0.9033,0.1694,0.196,-0.848,0.001,0.982,-24.011,23.759,5
0.6818,-0.5604,0.2425,-0.4026,0.3623,-0.9404,0.4667,-1.285,0.832,-0.446,-27.354,26.525,0.809,5
0.5835,-0.6925,0.1025,-0.4113,0.4252,-0.9926,0.1396,-1.123,0.505,-1.511,28.282,-32.111,11.009,5
0.6352,-0.618,0.1953,-0.4198,0.5537,-0.975,0.29,-0.262,-0.106,0.007,-6.504,31.775,-3.69,5
0.6397,-0.6723,0.1117,-0.3551,0.625,-1.0341,0.0834,1.733,-1.278,1.393,23.782,12.875,16.859,5
0.5671,-0.6854,0.1299,-0.4377,0.581,-0.9877,-0.0698,1.311,-0.994,0.832,-14.018,10.625,-13.427,5
0.6467,-0.5923,0.1916,-0.4405,0.3369,-0.8305,-0.0292,0.193,0.572,0.466,-5.468,28.325,-26.777,5
0.656,-0.6099,0.1708,-0.4102,0.225,-0.9726,0.3037,-0.489,0.128,-0.479,-12.554,-30.917,-17.396,5
0.6511,-0.6136,0.1694,-0.4132,0.1572,-0.978,0.2895,-0.484,-0.077,-0.663,-12.554,-30.917,-17.396,5
0.5462,-0.706,0.1072,-0.4378,0.582,-1.1821,0.145,-0.064,-0.549,0.723,23.782,12.875,16.859,5
0.6541,-0.6443,0.1356,-0.3722,0.4316,-0.7895,0.0625,0.139,2.395,0.595,-24.739,23.232,-2.364,5
0.6907,-0.5534,0.2376,-0.4,-0.0019,-0.8002,0.0273,0.513,1.855,0.818,24.232,17.075,16.859,5
0.5238,-0.7228,0.1071,-0.4377,0.6499,-0.998,-0.0957,0.554,-0.26,0.71,21.232,-31.661,20.459,5
0.6177,-0.6848,0.1148,-0.3689,0.3896,-0.9145,0.0126,0.002,-0.216,-0.033,-29.654,-27.617,-1.496,5
0.6199,-0.6863,0.1096,-0.364,0.3959,-0.9121,-0.0273,0.016,0.015,0.033,-29.054,-27.467,-1.046,5
0.656,-0.6138,0.1866,-0.3974,0.1162,-0.8764,0.0439,0.412,0.573,0.757,-24.739,23.232,-2.364,5
0.6459,-0.612,0.1963,-0.4118,0.354,-0.9863,0.3217,-0.628,-0.53,-0.463,-20.904,20.225,-2.19,5
0.5271,-0.7068,0.1117,-0.4581,0.3198,-1.1,0.1235,-1.038,0.843,-0.881,28.282,-32.111,11.009,5
0.6359,-0.617,0.1951,-0.4204,0.6308,-0.996,0.4184,-0.291,-0.405,0.038,-6.504,31.775,-3.69,5
0.6066,-0.6567,0.1532,-0.4209,0.3027,-0.6064,0.0986,-0.129,-2.344,-1.292,-6.504,31.775,-3.69,5
0.5123,-0.7044,0.1208,-0.476,0.3544,-1.0278,0.1582,-0.588,0.73,-0.284,-7.118,7.925,-14.927,5
0.638,-0.64,0.1408,-0.4041,0.392,-0.6782,0.0332,0.599,1.053,0.476,-17.904,11.525,10.109,5
0.6178,-0.6167,0.2042,-0.4428,0.3344,-0.9497,0.121,-0.173,-0.181,0.274,7.282,-14.861,17.609,5
0.6072,-0.6865,0.1207,-0.3811,0.2968,-0.8198,0.1474,-0.105,-0.802,-0.407,-28.754,-27.167,-0.596,5
0.5324,-0.699,0.1347,-0.4579,0.5454,-1.0102,-0.0683,0.734,-0.275,0.836,-14.018,10.625,-13.427,5
0.6166,-0.6791,0.128,-0.377,0.3764,-0.9838,-0.0224,0.153,-0.514,-0.118,-26.204,-25.967,-2.396,5
0.6203,-0.6854,0.1119,-0.3643,0.4052,-0.9765,0.0122,0.019,0.136,0.095,-29.054,-27.467,-1.046,5
0.6176,-0.6306,0.1899,-0.4297,0.3071,-0.9438,0.1196,0.003,-0.426,-0.144,9.832,-13.661,17.609,5
0.6093,-0.6197,0.1902,-0.4564,0.3833,-0.9277,0.1499,0.003,-0.035,0.488,-0.818,-23.711,24.509,5
0.6059,-0.6475,0.1754,-0.4274,0.2514,-0.7246,0.1533,-0.042,-1.849,-1.28,-26.454,1.175,17.759,5
0.6031,-0.6689,0.1327,-0.4136,0.2983,-0.6191,0.0288,-0.29,-2.215,-1.279,-6.504,31.775,-3.69,5
0.674,-0.5972,0.1923,-0.3897,0.2524,-0.9887,0.0908,0.372,-0.497,0.066,-17.754,20.825,-4.59,5
0.5304,-0.717,0.1089,-0.4389,0.5073,-1.3291,0.0869,-0.204,-0.623,0.441,-13.404,25.025,5.609,5
0.6192,-0.6837,0.1157,-0.3682,0.3486,-0.8188,0.0341,-0.047,0.142,-0.088,-29.054,-27.467,-1.046,5
0.6398,-0.6358,0.1447,-0.4066,0.333,-0.6914,0.0117,0.532,1.137,0.448,-17.904,11.525,10.109,5
0.6212,-0.6605,0.1241,-0.4029,0.4555,-0.7172,0.0351,0.964,0.925,1.095,-29.304,-30.011,9.059,5
0.6166,-0.6257,0.1998,-0.4338,0.2734,-0.9624,0.1328,-0.015,-0.248,-0.026,7.282,-14.861,17.609,5
0.6764,-0.5974,0.1872,-0.3879,0.2807,-1.0444,0.1049,0.191,-0.21,-0.096,-17.754,20.825,-4.59,5
0.641,-0.6308,0.1518,-0.4099,0.247,-0.7749,-0.0175,0.625,1.142,0.777,-29.304,-30.011,9.059,5
0.6273,-0.6904,0.0816,-0.3507,0.2236,-1.0141,-0.0122,0.716,-0.79,0.234,-28.754,-27.167,-0.596,5
0.6672,-0.5998,0.1985,-0.3943,0.1533,-0.8974,0.0615,0.441,0.024,0.283,-24.739,23.232,-2.364,5
0.6523,-0.5869,0.2084,-0.4318,0.5375,-1.0166,0.3505,-1.363,1.684,-0.2,-19.554,7.175,12.509,5
0.6206,-0.626,0.1812,-0.4357,0.7314,-0.6279,0.1176,0.6,-2.094,-0.564,5.632,-21.611,16.259,5
0.695,-0.5368,0.2522,-0.4063,-0.0117,-0.9501,0.101,0.504,0.482,0.198,-27.354,26.525,0.809,5
0.6309,-0.6762,0.1141,-0.3626,0.5742,-1.0747,0.0268,1.702,-1.618,1.241,23.782,12.875,16.859,5
0.7094,-0.5455,0.2218,-0.387,0.371,-1.2475,0.3286,-0.111,-0.983,0.074,-27.354,26.525,0.809,5
0.6506,-0.6267,0.1698,-0.3936,0.0629,-0.8662,0.0009,0.022,1.781,0.457,-24.739,23.232,-2.364,5
0.6539,-0.6029,0.1979,-0.4117,0.3125,-0.9882,0.3237,-0.976,0.46,-0.257,-17.754,20.825,-4.59,5
0.6069,-0.6907,0.1124,-0.3766,0.2851,-0.7983,0.1899,0.04,-1.042,-0.365,-28.754,-27.167,-0.596,5
0.5737,-0.6975,0.1092,-0.4149,0.5043,-0.9282,-0.0649,1.35,-0.577,0.836,21.232,-31.661,20.459,5
0.6175,-0.6805,0.1237,-0.3744,0.3759,-0.9321,-0.0288,0.115,-0.521,-0.102,-26.204,-25.967,-2.396,5
0.5141,-0.7057,0.1312,-0.4694,0.5639,-1.142,0.0195,0.187,-0.188,0.62,-7.118,7.925,-14.927,5
0.6792,-0.5861,0.1788,-0.4038,0.247,-0.7822,0.3183,-0.574,0.067,-0.817,-12.554,-30.917,-17.396,5
0.6739,-0.6176,0.1363,-0.3817,0.1635,-1.0009,0.1391,0.607,0.458,0.643,-30.554,-29.417,-4.946,5
0.6197,-0.6821,0.1164,-0.37,0.4648,-0.9174,0.0493,0.089,0.124,-0.026,-29.654,-27.617,-1.496,5
0.609,-0.682,0.1293,-0.3836,0.2543,-1.0185,0.1259,-0.029,-0.138,-0.298,-29.654,-27.617,-1.946,5
0.626,-0.6166,0.2041,-0.4314,0.1528,-0.7314,-0.0024,-0.547,1.108,-0.522,-6.504,31.775,-3.69,5
0.62,-0.6656,0.1446,-0.3891,0.2753,-0.9497,0.121,-0.239,0.035,-0.081,-28.154,-26.117,-3.746,5
0.548,-0.6949,0.1186,-0.45,0.4907,-1.0371,0.1015,0.097,-0.188,0.849,-28.304,29.669,1.953,5
0.6541,-0.5747,0.2244,-0.4374,0.2099,-0.9985,0.1704,-0.309,0.366,-0.369,10.732,11.075,29.009,5
0.6177,-0.6844,0.1156,-0.3695,0.3901,-0.9243,0.0249,-0.035,-0.119,-0.035,-29.654,-27.617,-1.496,5
0.6201,-0.686,0.1107,-0.364,0.4101,-0.9531,0.0185,0.012,0.059,0.08,-29.054,-27.467,-1.046,5
0.5854,-0.6328,0.1694,-0.4774,0.4799,-0.8666,0.1958,0.231,0.005,0.441,0.982,-24.011,23.759,5
0.5481,-0.7065,0.1086,-0.4341,0.6025,-1.1987,0.1083,0.005,-0.474,0.792,23.782,12.875,16.859,5
0.6426,-0.6273,0.1526,-0.4123,0.25,-0.7153,-0.0024,0.509,1.218,0.369,-17.904,11.525,10.109,5
0.6884,-0.5802,0.1813,-0.3955,0.2431,-0.9506,0.2861,-0.337,0.271,-0.696,-12.554,-30.917,-17.396,5
0.6655,-0.6014,0.1983,-0.3949,0.1406,-0.8969,0.0556,0.403,0.191,0.392,-24.739,23.232,-2.364,5
0.6764,-0.5974,0.1872,-0.3879,0.2807,-1.0444,0.1049,0.191,-0.21,-0.096,-17.754,20.825,-4.59,5
0.6037,-0.6885,0.1099,-0.3863,0.5224,-0.9814,-0.125,1.54,-2.025,1.079,-28.304,29.669,1.953,5
0.6071,-0.6205,0.1875,-0.4595,0.3935,-0.8901,0.1459,0.031,0.003,0.591,-0.818,-23.711,24.509,5
0.6162,-0.6221,0.2011,-0.439,0.3183,-0.9287,0.1557,-0.123,-0.217,-0.075,7.282,-14.861,17.609,5
0.6185,-0.6227,0.1912,-0.4393,0.6997,-0.6406,0.1401,0.587,-2.326,-0.508,5.632,-21.611,16.259,5
0.6275,-0.5869,0.2149,-0.4641,0.4985,-1.0693,0.3608,-0.705,1.599,-0.29,3.082,-27.311,19.259,5
0.6576,-0.6007,0.1954,-0.4104,0.3281,-0.9975,0.3134,-1.015,0.815,-0.213,-17.754,20.825,-4.59,5
0.5595,-0.698,0.1304,-0.4272,0.6201,-1.0942,0.0693,0.631,0.192,1.088,17.032,-4.974,-26.777,5
0.6152,-0.6769,0.1341,-0.3811,0.3496,-1.0322,0.0209,0.029,-0.449,-0.062,-26.204,-25.967,-2.396,5
0.5119,-0.7061,0.13,-0.4715,0.5322,-1.165,0.0766,0.054,-0.187,0.574,-7.118,7.925,-14.927,5
0.5673,-0.7004,0.1107,-0.4185,0.5078,-0.9648,-0.0678,1.281,-0.527,0.822,21.232,-31.661,20.459,5
0.6369,-0.6415,0.1324,-0.4064,0.3789,-0.8139,0.2363,-0.432,-1.957,-1.229,-18.554,-32.267,-9.896,5
0.6114,-0.6266,0.2086,-0.4357,0.1801,-0.7812,0.0571,-0.351,-1.344,-0.859,-26.454,1.175,17.759,5
0.5637,-0.6905,0.1286,-0.4343,0.3144,-0.8378,0.0029,0.417,-0.473,1.004,-28.304,29.669,1.953,5
0.557,-0.6913,0.0863,-0.4519,0.3735,-0.9511,0.1528,-0.726,0.964,-0.632,-30.554,30.419,0.753,5
0.6175,-0.6296,0.1916,-0.4305,0.3198,-0.9448,0.1376,0.024,-0.404,-0.181,9.832,-13.661,17.609,5
0.6584,-0.6084,0.1708,-0.4087,0.2714,-0.9418,0.3354,-0.528,0.072,-0.397,-12.554,-30.917,-17.396,5
0.6536,-0.6116,0.1705,-0.4118,0.1772,-0.9833,0.2929,-0.477,0.082,-0.573,-12.554,-30.917,-17.396,5
0.5942,-0.6259,0.1775,-0.4727,0.3911,-0.8442,0.1137,0.228,-0.013,0.571,-0.818,-23.711,24.509,5
0.6871,-0.5572,0.2385,-0.4004,0.3535,-0.9404,0.4433,-1.289,1.029,-0.462,-27.354,26.525,0.809,5
0.5559,-0.7057,0.1133,-0.4242,0.5878,-1.1093,0.0297,0.297,-0.244,0.843,23.782,12.875,16.859,5
0.6124,-0.6345,0.194,-0.4297,0.2514,-0.8286,0.122,-0.555,-1.097,-0.909,5.782,13.175,-29.777,5
0.6079,-0.6845,0.1242,-0.3826,0.2978,-0.8554,0.1225,-0.095,-0.604,-0.414,-29.654,-27.617,-1.946,5
0.6658,-0.6267,0.1301,-0.3833,0.1503,-0.9887,0.1445,0.618,0.321,0.48,-30.554,-29.417,-4.946,5
0.6261,-0.6494,0.1492,-0.4048,0.4052,-0.6938,0.1586,-0.436,-1.076,-1.169,-20.904,20.225,-2.19,5
0.6869,-0.592,0.1872,-0.3775,0.1137,-0.7944,0.0415,0.328,2.151,0.594,24.232,17.075,16.859,5
0.6929,-0.5431,0.2479,-0.4041,-0.0131,-0.8666,0.0571,0.54,1.158,0.575,-27.354,26.525,0.809,5
0.6149,-0.6297,0.1989,-0.4309,0.1948,-0.8432,0.0698,-0.627,-0.702,-0.707,5.782,13.175,-29.777,5
0.5383,-0.6954,0.108,-0.4635,0.5053,-1.2426,0.1171,-0.055,-0.155,0.66,-30.554,30.419,0.753,5
0.5238,-0.7023,0.1337,-0.463,0.5727,-1.0532,-0.103,0.56,-0.242,0.734,-14.018,10.625,-13.427,5
0.662,-0.5764,0.2143,-0.4284,0.2475,-0.9252,0.041,0.085,0.847,0.37,12.232,3.125,-26.327,5
0.5315,-0.7066,0.1052,-0.455,0.4238,-1.1728,0.1191,-0.519,-0.014,0.324,24.982,-0.174,30.209,5
0.6181,-0.6837,0.1162,-0.3699,0.3818,-0.9438,0.0043,-0.066,0.001,-0.007,-29.654,-27.617,-1.496,5
0.5878,-0.6767,0.1153,-0.428,0.2387,-0.8872,0.1035,-0.503,0.097,-1.196,32.482,15.275,8.609,5
0.6062,-0.588,0.2421,-0.4775,0.2509,-1.3198,0.4692,-0.766,0.588,-0.054,3.082,-27.311,19.259,5
0.6499,-0.6052,0.1736,-0.4254,0.248,-0.7119,0.0019,0.468,1.318,0.611,-17.904,11.525,10.109,5
0.6923,-0.5853,0.1745,-0.3841,0.1044,-0.9526,0.1757,0.319,1.106,0.571,-19.304,-31.067,-14.696,5
0.6187,-0.6839,0.1153,-0.3688,0.3476,-0.7778,0.0532,-0.016,-0.019,-0.077,-29.054,-27.467,-1.046,5
0.6866,-0.5999,0.1548,-0.3801,0.1513,-0.975,0.1503,0.469,0.864,0.786,-30.554,-29.417,-4.946,5
0.6057,-0.6211,0.1858,-0.4611,0.4042,-0.8549,0.144,0.06,0.0,0.617,-0.818,-23.711,24.509,5
0.5778,-0.6347,0.171,-0.4837,0.4863,-0.8852,0.1752,0.26,-0.7,0.189,0.982,-24.011,23.759,5
0.6325,-0.6177,0.1981,-0.4231,0.374,-0.8593,0.0874,-0.202,0.709,-0.14,-6.504,31.775,-3.69,5
0.629,-0.6451,0.1553,-0.4049,0.3896,-0.7065,0.1391,-0.393,-1.11,-1.093,-20.904,20.225,-2.19,5
0.6638,-0.6033,0.1972,-0.3953,0.1357,-0.8984,0.0517,0.38,0.334,0.498,-24.739,23.232,-2.364,5
0.7089,-0.5473,0.2206,-0.386,0.4531,-1.1542,0.4052,-0.279,-0.418,-0.113,-27.354,26.525,0.809,5
0.6499,-0.6202,0.1979,-0.392,0.2958,-0.7309,0.1718,-0.322,-2.54,-1.509,-26.304,30.425,-0.54,5
0.6164,-0.6246,0.201,-0.4351,0.2641,-0.9785,0.1284,-0.055,-0.139,0.046,7.282,-14.861,17.609,5
0.608,-0.605,0.2282,-0.4604,0.4013,-0.8193,0.2451,-0.008,-1.908,-0.051,5.632,-21.611,16.259,5
0.5892,-0.6835,0.11,-0.4164,0.4394,-0.791,0.0937,-0.361,-0.994,-1.179,-26.454,1.175,17.759,5
0.6165,-0.6658,0.1196,-0.4026,0.4916,-0.7163,0.0507,1.046,0.834,1.126,-29.304,-30.011,9.059,5
0.644,-0.6156,0.1933,-0.4108,0.3769,-0.9682,0.3125,-0.562,-0.766,-0.504,-20.904,20.225,-2.19,5
0.6196,-0.6813,0.1167,-0.3717,0.4165,-0.913,0.0136,0.047,0.174,-0.065,-29.654,-27.617,-1.496,5
0.6571,-0.5921,0.1935,-0.4244,0.2646,-0.7456,-0.0273,0.525,0.77,0.873,12.232,3.125,-26.327,5
0.5997,-0.6711,0.1224,-0.4181,0.2934,-0.8125,0.0971,-0.524,0.047,-1.151,-20.904,20.225,-2.19,5
0.6177,-0.6318,0.1883,-0.4285,0.2993,-0.9628,0.1113,-0.026,-0.46,-0.1,9.832,-13.661,17.609,5
0.5552,-0.7008,0.1275,-0.4291,0.6225,-1.103,0.041,0.556,0.184,1.129,17.032,-4.974,-26.777,5
0.6821,-0.6071,0.1463,-0.3802,0.1713,-0.9829,0.1376,0.566,0.669,0.793,-30.554,-29.417,-4.946,5
0.6475,-0.5884,0.197,-0.4422,0.3896,-0.9433,0.0644,0.083,0.329,0.034,-5.468,28.325,-26.777,5
0.6193,-0.6861,0.1108,-0.3652,0.3925,-0.934,-0.019,0.091,-0.266,0.023,-29.054,-27.467,-1.046,5
0.6059,-0.6783,0.0829,-0.4071,0.3979,-0.8188,0.0937,-0.632,-0.228,-1.041,-18.554,-32.267,-9.896,5
0.6229,-0.6536,0.1435,-0.405,0.4213,-0.7167,0.185,-0.486,-0.954,-1.203,-20.904,20.225,-2.19,5
0.6983,-0.5331,0.2489,-0.4076,-0.0161,-1.0024,0.1557,0.462,-0.373,-0.126,-27.354,26.525,0.809,5
0.6468,-0.6144,0.1643,-0.4206,0.2373,-0.6923,-0.0122,0.497,1.203,0.438,-17.904,11.525,10.109,5
0.6363,-0.6319,0.1585,-0.4129,0.3208,-0.6562,0.0327,0.569,1.451,0.605,12.232,3.125,-26.327,5
0.5631,-0.6886,0.1042,-0.4447,0.3032,-0.9428,0.1562,-0.652,0.1,-0.927,32.482,15.275,8.609,5
0.5896,-0.6866,0.0758,-0.4184,0.4653,-0.8505,0.1308,-0.699,0.195,-0.939,-18.554,-32.267,-9.896,5
0.6366,-0.6561,0.138,-0.3808,0.4379,-0.6669,0.1264,-0.577,-1.855,-1.748,-26.304,30.425,-0.54,5
0.5373,-0.7192,0.1072,-0.4271,0.6289,-1.1972,-0.1206,0.468,-0.758,0.561,-16.704,21.275,13.259,5
0.616,-0.6235,0.2008,-0.4373,0.2944,-0.9653,0.1337,-0.068,-0.109,0.087,7.282,-14.861,17.609,5
0.6214,-0.6653,0.0974,-0.4019,0.4399,-0.7558,0.1162,-0.57,-0.896,-1.1,-18.554,-32.267,-9.896,5
0.6875,-0.6128,0.1522,-0.3585,0.2924,-0.7045,-0.0122,0.282,2.326,0.685,24.232,17.075,16.859,5
0.6356,-0.6865,0.0779,-0.3442,0.4169,-1.122,0.0917,0.624,-0.225,0.315,-28.754,-27.167,-0.596,5
0.7883,-0.5867,-0.1123,0.1469,-0.0927,-0.7998,0.2011,-0.454,1.831,-1.187,-28.95,28.199,-8.237,6
0.8165,-0.5133,-0.0304,0.2621,-0.2197,-1.104,0.3979,0.146,1.16,-0.241,13.349,30.749,22.949,6
0.819,-0.5064,-0.0044,0.2694,-0.2407,-0.9741,0.394,0.252,0.538,-0.322,-23.25,25.649,-12.737,6
0.8217,-0.5204,-0.0429,0.2279,0.0068,-1.4184,0.6215,-0.425,0.606,-0.718,-1.8,30.449,22.499,6
0.7466,-0.5845,-0.2179,0.2308,0.0839,-0.9829,0.0844,-0.225,-1.009,-0.029,-27.0,9.914,-22.187,6
0.7777,-0.6107,-0.094,0.1153,-0.0205,-0.9628,0.2558,-0.026,-0.035,-0.085,4.949,-8.837,16.049,6
0.7979,-0.5627,-0.1089,0.1861,-0.1235,-0.9467,0.2661,0.228,0.03,0.321,2.249,-15.437,11.399,6
0.7796,-0.6117,-0.088,0.1012,-0.0878,-0.9853,0.2861,-0.018,0.127,-0.182,5.399,-9.137,15.149,6
0.7889,-0.6086,-0.0241,0.0812,0.2641,-0.8984,0.3027,-0.072,0.66,-0.825,-22.95,-5.087,-31.637,6
0.805,-0.5344,-0.0539,0.2517,-0.1606,-0.7788,0.2031,0.828,0.245,0.572,-1.35,-31.637,22.049,6
0.7918,-0.5561,-0.1519,0.2014,0.3349,-0.6767,0.2236,-0.552,-1.09,-0.958,6.149,-16.637,15.149,6
0.7823,-0.6055,-0.1198,0.0831,-0.1674,-0.8427,0.1967,-0.183,1.222,-1.233,1.799,30.149,-29.237,6
0.7673,-0.622,-0.1486,0.046,0.208,-0.8842,0.0874,0.328,-0.266,0.978,-5.1,-19.787,27.599,6
0.8026,-0.5429,-0.0373,0.2439,-0.0112,-0.8139,0.122,0.755,-0.055,0.76,28.786,-15.887,-7.487,6
0.7937,-0.6076,0.0031,-0.0264,-0.1015,-0.9018,0.3286,-0.179,0.588,-0.508,28.936,-8.837,-25.037,6
0.8121,-0.5179,-0.0455,0.2644,-0.2182,-0.8339,0.2182,0.453,0.097,0.451,13.349,30.749,22.949,6
0.8158,-0.5073,-0.0102,0.2772,-0.1791,-0.8798,0.4624,0.198,0.097,0.018,-20.1,21.749,-12.137,6
0.8128,-0.5155,-0.0257,0.2698,-0.1875,-0.7836,0.3022,0.73,0.717,0.618,-20.1,21.749,-12.137,6
0.7921,-0.5667,-0.0851,0.2098,0.1015,-0.854,0.1708,1.058,0.235,1.083,28.786,-15.887,-7.487,6
0.7816,-0.5869,-0.151,0.1474,0.2856,-0.8134,0.2436,1.111,-0.572,1.169,-25.8,-26.837,-22.187,6
0.778,-0.6093,-0.0941,0.1205,-0.0058,-0.9951,0.246,-0.027,-0.012,-0.027,3.899,-11.687,15.899,6
0.7963,-0.571,-0.1222,0.1573,-0.1562,-0.8842,0.2441,0.165,-0.108,0.421,0.449,-11.987,14.999,6
0.781,-0.5899,-0.1217,0.1646,0.164,-0.8417,0.2138,1.096,-1.441,1.503,-15.9,19.649,-12.437,6
0.7582,-0.5844,-0.1923,0.2156,0.1186,-1.0229,0.1347,-0.205,-0.88,0.004,-27.0,9.914,-22.187,6
0.7921,-0.5899,-0.1404,0.0691,-0.1303,-0.8637,0.3369,-0.67,1.209,-1.023,-3.75,-14.987,23.699,6
0.8008,-0.5499,-0.0768,0.2241,0.0434,-1.0063,0.3769,-1.287,-0.194,-0.696,-28.95,28.199,-8.237,6
0.7849,-0.5693,-0.1368,0.2022,0.2973,-1.0058,0.3437,-0.729,-0.855,-0.351,4.349,-18.287,10.799,6
0.7781,-0.6091,-0.0938,0.1206,0.0029,-0.9848,0.2524,-0.022,-0.013,-0.016,3.899,-11.687,15.899,6
0.7826,-0.6107,-0.0687,0.0988,0.0112,-1.0078,0.1538,0.242,-0.456,0.389,30.286,1.213,-17.987,6
0.7992,-0.5598,-0.0983,0.195,-0.1333,-0.9145,0.2895,0.01,0.077,0.044,2.249,-15.437,11.399,6
0.7865,-0.5771,-0.1213,0.1833,0.1699,-0.7656,0.2656,-0.572,0.956,-1.18,-28.95,28.199,-8.237,6
0.7593,-0.6381,-0.1258,0.0165,0.1235,-1.5654,0.1025,0.109,-0.204,0.667,19.036,26.099,1.363,6
0.7951,-0.6058,-0.0109,0.0235,0.0102,-0.9052,0.3007,0.061,1.068,-0.731,-32.25,-5.237,-20.987,6
0.7783,-0.609,-0.0946,0.1195,-0.0107,-0.9887,0.2377,0.021,0.001,-0.011,3.599,-10.637,15.599,6
0.8166,-0.5183,-0.0407,0.2503,-0.1713,-1.0605,0.3452,0.278,0.069,-0.253,-1.35,-31.637,22.049,6
0.78,-0.6035,-0.1236,0.1092,-0.1157,-0.7998,0.1528,-0.28,1.525,-1.219,1.799,30.149,-29.237,6
0.7954,-0.6056,-0.009,0.0176,-0.0209,-0.9096,0.2934,0.041,1.044,-0.734,-32.25,-5.237,-20.987,6
0.7314,-0.5817,-0.2523,0.2508,0.1513,-1.0263,0.1181,-0.22,-0.89,0.002,-31.2,9.313,-17.237,6
0.7759,-0.6292,-0.0412,0.015,-0.019,-1.1123,0.2387,0.077,-0.756,0.331,27.586,-5.837,-21.137,6
0.7645,-0.6231,-0.1644,-0.0085,0.1992,-1.3754,0.1718,-0.019,-0.038,0.683,-25.5,-32.237,-21.437,6
0.7908,-0.6107,0.008,-0.0396,-0.1787,-0.9453,0.312,-0.24,0.248,-0.285,28.936,-8.837,-25.037,6
0.7882,-0.5762,-0.1398,0.164,0.1103,-0.8115,0.1894,1.152,0.08,1.206,-25.8,-26.837,-22.187,6
0.7986,-0.5612,-0.1048,0.1903,-0.1313,-0.9584,0.2739,0.143,0.016,0.184,2.249,-15.437,11.399,6
0.7821,-0.6082,-0.0941,0.0968,-0.1035,-0.913,0.2802,-0.087,0.884,-0.984,0.449,-19.187,14.999,6
0.776,-0.6288,-0.0429,0.0188,-0.0195,-1.1523,0.2324,0.096,-0.772,0.383,27.586,-5.837,-21.137,6
0.8145,-0.5554,0.0245,0.1656,-0.3828,-1.3017,0.3896,-0.259,0.791,-1.08,-23.1,-8.687,-27.887,6
0.7885,-0.5963,-0.1486,0.0213,-0.0375,-0.9589,0.312,-0.444,-0.591,-0.941,-15.15,-31.037,-29.087,6
0.7779,-0.6025,-0.1198,0.1317,0.0615,-0.9868,0.1757,1.01,-1.614,1.683,-15.9,19.649,-12.437,6
0.7948,-0.5638,-0.1092,0.196,-0.0834,-1.1884,0.3125,-0.455,-0.795,-0.213,4.349,-18.287,10.799,6
0.7502,-0.5847,-0.21,0.226,0.0766,-1.0053,0.0903,-0.227,-0.91,-0.024,-27.0,9.914,-22.187,6
0.7909,-0.5974,-0.0961,0.0901,-0.2353,-0.8813,0.2456,-0.38,1.448,-1.205,27.886,28.349,-3.737,6
0.762,-0.6292,-0.1523,0.0004,0.2045,-1.2148,0.2817,-0.007,0.132,0.103,-2.55,26.999,-22.037,6
0.7754,-0.5991,-0.1259,0.1545,0.1508,-0.8242,0.1948,1.124,-1.116,1.176,0.599,-11.687,-28.187,6
0.7784,-0.6089,-0.0947,0.1196,-0.0117,-0.9829,0.2426,0.0,-0.028,-0.006,3.599,-10.637,15.599,6
0.7962,-0.5723,-0.1284,0.1479,-0.1113,-0.935,0.2729,0.173,0.02,0.348,0.449,-11.987,14.999,6
0.8147,-0.5096,-0.0111,0.2761,-0.2343,-0.8461,0.3671,0.24,-0.111,0.231,-20.1,21.749,-12.137,6
0.801,-0.5451,-0.0847,0.2323,-0.0581,-0.8183,0.125,0.941,0.231,1.294,-15.9,19.649,-12.437,6
0.7782,-0.6092,-0.0945,0.1195,-0.0131,-0.9799,0.2495,0.002,-0.018,-0.014,3.599,-10.637,15.599,6
0.8101,-0.5328,-0.0111,0.2441,-0.0781,-0.8769,0.2744,-0.164,1.177,-0.32,-23.1,-8.687,-27.887,6
0.7687,-0.6206,-0.1437,0.056,0.1704,-0.9575,0.0361,0.481,-0.238,1.136,-5.1,-19.787,27.599,6
0.79,-0.6045,-0.0867,0.053,-0.2451,-0.872,0.3378,-0.434,1.113,-0.996,27.886,28.349,-3.737,6
0.7994,-0.5599,-0.0977,0.1942,-0.1401,-1.0117,0.2924,0.031,0.06,-0.117,4.349,-18.287,10.799,6
0.8138,-0.5274,-0.0592,0.2364,0.3354,-0.875,0.6499,-0.978,-0.89,-0.771,-23.25,25.649,-12.737,6
0.7957,-0.6055,-0.0041,0.0017,-0.0981,-0.9057,0.288,-0.017,0.859,-0.673,-32.25,-5.237,-20.987,6
0.7668,-0.6244,-0.148,0.0006,0.0478,-0.9731,0.2666,-0.499,-0.333,-0.311,-2.55,26.999,-22.037,6
0.8057,-0.5296,-0.0708,0.2553,-0.0175,-0.8291,0.2778,0.977,0.506,0.835,7.649,-20.987,26.849,6
0.7837,-0.5833,-0.1481,0.1534,0.2524,-0.8032,0.2353,1.116,-0.317,1.14,-25.8,-26.837,-22.187,6
0.7765,-0.5942,-0.127,0.1661,0.0322,-1.0058,0.0698,0.078,-1.348,0.124,-28.8,6.463,-24.737,6
0.778,-0.6107,-0.0943,0.1126,0.017,-0.9907,0.2866,-0.003,0.174,-0.077,4.949,-8.837,16.049,6
0.8064,-0.5343,-0.032,0.2512,0.0356,-0.8476,0.1914,0.692,-0.135,0.406,28.786,-15.887,-7.487,6
0.7882,-0.598,-0.1363,0.0484,-0.1552,-0.9243,0.2998,-0.883,0.876,-0.955,-3.75,-14.987,23.699,6
0.7752,-0.6126,-0.1534,-0.006,0.1293,-1.1088,0.3496,-0.276,-0.494,-0.295,0.449,-16.187,21.149,6
0.7887,-0.565,-0.1136,0.2135,0.3383,-0.7797,0.3002,-0.704,-0.553,-0.842,-28.95,28.199,-8.237,6
0.7779,-0.6101,-0.0935,0.1176,-0.0185,-0.9731,0.2534,-0.027,0.091,-0.031,4.649,-11.387,15.599,6
0.8219,-0.5182,-0.043,0.2324,-0.0034,-1.374,0.6088,-0.366,0.474,-0.64,-1.8,30.449,22.499,6
0.815,-0.5087,-0.011,0.277,-0.2177,-0.8671,0.4038,0.207,-0.117,0.171,-20.1,21.749,-12.137,6
0.7884,-0.6032,-0.1179,0.0225,-0.0585,-0.8671,0.2802,-0.087,-0.047,-0.807,6.299,-14.987,18.299,6
0.7716,-0.6199,-0.1419,0.0025,0.0097,-0.9804,0.3188,-0.428,-0.307,-0.531,-2.55,26.999,-22.037,6
0.7915,-0.5598,-0.1137,0.2171,0.0595,-0.7646,0.227,0.926,-0.016,1.002,-1.2,-24.587,25.199,6
0.7759,-0.6097,-0.119,0.1087,0.0346,-1.0854,0.1616,1.017,-1.41,1.689,-15.9,19.649,-12.437,6
0.772,-0.6118,-0.1501,0.0837,0.1596,-1.0756,0.1162,0.843,-1.361,1.564,-25.8,-26.837,-22.187,6
0.7736,-0.6136,-0.133,0.0849,0.0585,-1.206,0.1123,0.81,-0.645,1.598,-5.1,-19.787,27.599,6
0.7803,-0.6064,-0.0984,0.1161,-0.0292,-0.9458,0.2646,-0.199,1.521,-0.671,0.449,-19.187,14.999,6
0.7872,-0.5676,-0.1319,0.2017,0.2563,-1.0615,0.3476,-0.63,-0.997,-0.327,4.349,-18.287,10.799,6
0.8122,-0.5395,-0.029,0.2197,-0.0722,-0.9633,0.4716,-1.021,-0.904,-0.906,11.099,26.099,29.099,6
0.822,-0.5149,-0.0424,0.2393,-0.0561,-1.2304,0.5502,-0.122,0.193,-0.467,-1.8,30.449,22.499,6
0.7992,-0.5598,-0.1024,0.193,-0.1259,-0.9609,0.3022,0.13,-0.01,0.124,2.249,-15.437,11.399,6
0.8139,-0.5609,0.0212,0.1495,-0.3574,-1.2319,0.3686,-0.417,0.3,-1.032,-22.95,-5.087,-31.637,6
0.7958,-0.5572,-0.0878,0.22,0.0942,-0.9863,0.3457,-1.118,-0.626,-0.724,-28.95,28.199,-8.237,6
0.7518,-0.5847,-0.2062,0.2239,0.08,-1.0087,0.104,-0.222,-0.87,-0.016,-27.0,9.914,-22.187,6
0.7982,-0.5538,-0.0819,0.2218,0.0522,-0.998,0.352,-1.203,-0.423,-0.713,-28.95,28.199,-8.237,6
0.7966,-0.5542,-0.1285,0.2038,0.2866,-0.726,0.2172,-0.865,-1.276,-0.892,6.149,-16.637,15.149,6
0.7281,-0.5814,-0.2583,0.2546,0.1489,-1.0322,0.1074,-0.199,-0.737,0.047,-31.2,9.313,-17.237,6
0.7703,-0.6169,-0.1611,-0.0042,0.166,-1.3178,0.2783,-0.237,-0.236,0.062,0.449,-16.187,21.149,6
0.7816,-0.5822,-0.1108,0.194,0.3486,-0.895,0.2421,-0.783,-0.783,-0.783,11.099,26.099,29.099,6
0.7927,-0.6086,0.0055,-0.0332,-0.1528,-0.913,0.3198,-0.184,0.589,-0.438,28.936,-8.837,-25.037,6
0.7722,-0.615,-0.1592,-0.0055,0.1293,-1.2202,0.3027,-0.254,-0.316,-0.128,0.449,-16.187,21.149,6
0.7764,-0.627,-0.0505,0.0375,0.0522,-1.1137,0.2016,0.136,-1.025,0.545,27.586,-5.837,-21.137,6
0.7892,-0.5664,-0.1265,0.2006,0.1796,-1.1279,0.33,-0.569,-1.161,-0.334,4.349,-18.287,10.799,6
0.7389,-0.583,-0.236,0.2413,0.1362,-0.9916,0.1044,-0.227,-1.145,-0.046,-27.0,9.914,-22.187,6
0.7939,-0.5813,-0.1303,0.1213,-0.1318,-1.1069,0.2294,0.311,-0.313,0.238,3.299,-10.937,18.149,6
0.7829,-0.6059,-0.1191,0.0751,-0.1596,-0.8344,0.2187,-0.185,1.149,-1.213,1.799,30.149,-29.237,6
0.7778,-0.6096,-0.0946,0.12,-0.0048,-0.9814,0.249,-0.008,0.023,-0.017,3.899,-11.687,15.899,6
0.7654,-0.6258,-0.1497,0.0005,0.0976,-0.9926,0.249,-0.431,-0.319,-0.238,-2.55,26.999,-22.037,6
0.7951,-0.6061,0.0005,-0.0157,-0.1166,-0.8862,0.2978,-0.093,0.649,-0.567,-32.25,-5.237,-20.987,6
0.7756,-0.5932,-0.1318,0.1703,0.0424,-0.996,0.0708,0.073,-1.35,0.107,-28.8,6.463,-24.737,6
0.7996,-0.5598,-0.0978,0.1935,-0.1635,-1.1025,0.2861,0.013,0.071,-0.134,4.349,-18.287,10.799,6
0.7907,-0.6017,-0.0902,0.0669,-0.2353,-0.8627,0.3007,-0.386,1.188,-1.048,27.886,28.349,-3.737,6
0.7936,-0.5835,-0.1457,0.0915,-0.1357,-0.8276,0.331,-0.621,1.161,-1.04,-3.75,-14.987,23.699,6
0.8108,-0.5212,-0.0508,0.2613,-0.1958,-0.8374,0.205,0.635,0.437,0.601,13.349,30.749,22.949,6
0.7618,-0.6336,-0.1339,0.0128,0.1142,-1.0805,0.2709,-0.34,-0.153,-0.376,19.036,26.099,1.363,6
0.7985,-0.5881,-0.0265,0.125,0.1826,-1.1074,0.6425,-1.146,0.016,-0.976,-22.95,-5.087,-31.637,6
0.8028,-0.5396,-0.0738,0.2421,-0.082,-0.8295,0.1645,0.909,0.24,1.342,-15.9,19.649,-12.437,6
0.7884,-0.5728,-0.1159,0.1918,0.0141,-0.7788,0.1303,1.193,-0.362,1.049,7.649,-20.987,26.849,6
0.7837,-0.6083,-0.1185,0.0399,-0.1845,-0.9062,0.2431,-0.266,0.707,-1.17,1.799,30.149,-29.237,6
0.7914,-0.608,-0.0211,0.0578,0.1191,-0.9086,0.3061,0.113,0.947,-0.729,-32.25,-5.237,-20.987,6
0.7428,-0.5839,-0.2268,0.2359,0.103,-0.9809,0.082,-0.22,-1.103,-0.046,-27.0,9.914,-22.187,6
0.7993,-0.5594,-0.1007,0.1944,-0.1313,-0.9536,0.3139,0.047,0.043,0.103,2.249,-15.437,11.399,6
0.7982,-0.5794,-0.1152,0.1172,0.0292,-0.6909,0.2685,-0.529,0.378,-1.26,-8.7,31.199,27.899,6
0.8207,-0.5259,-0.0426,0.2186,-0.0048,-1.3627,0.5747,-0.62,0.632,-0.721,-1.8,30.449,22.499,6
0.7778,-0.6095,-0.0946,0.1203,0.0078,-0.9916,0.2402,-0.014,0.01,-0.016,3.899,-11.687,15.899,6
0.8237,-0.5001,-0.0421,0.2634,-0.0029,-1.4394,0.6972,-0.494,1.348,-0.641,-1.65,-19.937,18.599,6
0.7691,-0.6113,-0.1861,0.0061,0.3032,-1.0634,0.3481,-0.499,0.203,-0.201,-25.5,-32.237,-21.437,6
0.7965,-0.5589,-0.0682,0.2199,-0.0361,-0.9028,0.1293,0.86,0.509,1.128,28.786,-15.887,-7.487,6
0.7759,-0.6299,-0.0332,0.001,-0.0249,-0.9838,0.2856,-0.057,-0.8,0.24,27.586,-5.837,-21.137,6
0.7761,-0.6297,-0.0311,-0.0023,-0.0468,-0.956,0.2802,-0.084,-0.772,0.234,27.586,-5.837,-21.137,6
0.7817,-0.5858,-0.123,0.1748,0.1308,-0.7802,0.1811,1.204,-0.585,0.974,7.649,-20.987,26.849,6
0.8059,-0.5449,-0.0973,0.2098,-0.0883,-0.7846,0.2036,1.238,-0.139,1.346,-16.8,-20.537,-31.487,6
0.7893,-0.6061,-0.0852,0.0464,-0.2685,-0.8876,0.3291,-0.479,1.038,-0.971,27.886,28.349,-3.737,6
0.7993,-0.5596,-0.1018,0.1936,-0.1279,-0.9555,0.3144,0.108,0.003,0.115,2.249,-15.437,11.399,6
0.7971,-0.5649,-0.1137,0.18,-0.1152,-0.9262,0.2788,0.22,-0.102,0.384,2.249,-15.437,11.399,6
0.8011,-0.5421,-0.0656,0.2448,-0.1621,-0.7368,0.1088,0.773,0.441,1.031,-1.35,-31.637,22.049,6
0.8138,-0.55,0.0224,0.1857,-0.3266,-1.0629,0.2915,-0.117,1.201,-0.951,-23.1,-8.687,-27.887,6
0.7833,-0.6063,-0.1187,0.0672,-0.1718,-0.8505,0.2294,-0.207,1.064,-1.214,1.799,30.149,-29.237,6
0.759,-0.6384,-0.1255,0.0206,0.1137,-1.4824,0.207,0.031,-0.509,0.683,19.036,26.099,1.363,6
0.7965,-0.5681,-0.1186,0.1692,-0.1533,-0.9096,0.2734,0.219,-0.171,0.402,0.449,-11.987,14.999,6
0.7914,-0.6099,0.0075,-0.0381,-0.1796,-0.9423,0.31,-0.225,0.389,-0.33,28.936,-8.837,-25.037,6
0.7949,-0.5917,-0.1271,0.0421,-0.1596,-0.8398,0.2841,-0.363,0.559,-1.023,-15.15,-31.037,-29.087,6
0.7777,-0.6106,-0.0936,0.1155,-0.017,-0.9575,0.2587,-0.031,-0.013,-0.08,4.949,-8.837,16.049,6
0.8035,-0.5454,-0.0725,0.2269,0.1054,-1.0078,0.4238,-1.328,0.039,-0.591,-28.95,28.199,-8.237,6
0.7799,-0.6177,-0.0659,0.0756,0.0834,-0.9829,0.2167,0.256,-0.544,0.428,30.286,1.213,-17.987,6
0.7799,-0.6112,-0.0911,0.0989,-0.0874,-0.9667,0.2778,-0.015,-0.208,-0.212,5.399,-9.137,15.149,6
0.7774,-0.5952,-0.1222,0.1618,0.0288,-0.9956,0.0605,0.077,-1.335,0.136,-28.8,6.463,-24.737,6
0.778,-0.6221,-0.0614,0.0616,0.0966,-0.9824,0.2509,0.27,-0.829,0.453,30.286,1.213,-17.987,6
0.7931,-0.5691,-0.1288,0.1744,-0.0073,-0.8017,0.1513,1.23,0.258,1.353,-25.8,-26.837,-22.187,6
0.7998,-0.5479,-0.09,0.2275,-0.038,-0.8007,0.1186,1.049,0.252,1.277,-15.9,19.649,-12.437,6
0.7993,-0.5596,-0.0988,0.195,-0.1347,-0.9311,0.2993,0.022,0.088,0.073,2.249,-15.437,11.399,6
0.7761,-0.6086,-0.1285,0.1035,0.0507,-1.1665,0.1655,0.86,-0.9,1.685,-5.1,-19.787,27.599,6
0.8164,-0.5069,-0.0092,0.2762,-0.1865,-0.8901,0.455,0.213,0.283,-0.067,-20.1,21.749,-12.137,6
0.8087,-0.5249,-0.0596,0.2585,-0.1459,-0.8393,0.2246,0.828,0.653,0.741,7.649,-20.987,26.849,6
0.7907,-0.6084,-0.0223,0.0635,0.1416,-0.9179,0.2978,0.092,0.941,-0.776,-32.25,-5.237,-20.987,6
0.8133,-0.5252,-0.0772,0.2378,-0.1064,-0.8173,0.226,1.076,-0.023,1.168,-16.8,-20.537,-31.487,6
0.7821,-0.6123,-0.0679,0.0931,0.0336,-1.0151,0.1596,0.233,-0.397,0.431,30.286,1.213,-17.987,6
0.8105,-0.5259,-0.0277,0.256,0.0019,-0.8476,0.2441,0.433,0.064,0.259,28.786,-15.887,-7.487,6
0.8037,-0.5368,-0.0681,0.247,-0.1005,-0.8227,0.1743,0.923,0.276,1.35,-20.1,21.749,-12.137,6
0.7729,-0.6188,-0.1395,0.0036,0.0073,-1.0126,0.3183,-0.456,-0.323,-0.634,-2.55,26.999,-22.037,6
0.7794,-0.6187,-0.0651,0.0723,0.0869,-0.9687,0.2182,0.259,-0.583,0.422,30.286,1.213,-17.987,6
0.7853,-0.5767,-0.1198,0.1904,0.2104,-0.7685,0.2211,1.152,-0.847,1.209,-15.9,19.649,-12.437,6
0.8163,-0.5305,-0.0145,0.2276,-0.331,-1.2788,0.4658,-0.689,0.651,-0.9,11.099,26.099,29.099,6
0.78,-0.5838,-0.1174,0.1919,0.415,-0.8227,0.2373,-0.775,-0.735,-0.856,11.099,26.099,29.099,6
0.8145,-0.5217,-0.0732,0.2427,-0.122,-0.831,0.2231,1.01,-0.016,1.146,-16.8,-20.537,-31.487,6
0.7988,-0.5778,-0.1128,0.1234,0.0419,-0.6972,0.2841,-0.513,0.276,-1.222,-8.7,31.199,27.899,6
0.8035,-0.5371,-0.0573,0.2499,-0.1499,-0.7636,0.1577,0.804,0.264,0.704,-1.35,-31.637,22.049,6
0.7759,-0.6295,-0.0393,0.0114,-0.0141,-1.0698,0.2529,0.057,-0.769,0.289,27.586,-5.837,-21.137,6
0.7631,-0.634,-0.1242,0.0133,0.0673,-1.1748,0.2861,0.084,-0.397,0.711,-9.15,25.199,-16.937,6
0.778,-0.6095,-0.0944,0.1191,-0.0048,-0.9926,0.2573,-0.018,0.028,-0.006,4.649,-11.387,15.599,6
0.7763,-0.5985,-0.1536,0.1245,0.291,-0.9174,0.2524,1.032,-1.306,1.358,-25.8,-26.837,-22.187,6
0.7884,-0.6079,-0.0841,0.0403,-0.2807,-0.9121,0.3095,-0.542,0.903,-0.967,27.886,28.349,-3.737,6
0.8172,-0.5146,-0.0262,0.258,-0.2578,-1.1733,0.4096,0.061,1.22,-0.277,13.349,30.749,22.949,6
0.7764,-0.627,-0.0505,0.0375,0.0522,-1.1137,0.2016,0.136,-1.025,0.545,27.586,-5.837,-21.137,6
0.7945,-0.5781,-0.1324,0.1298,-0.1,-1.0415,0.2622,0.242,-0.47,0.322,3.299,-10.937,18.149,6
0.7597,-0.5845,-0.1887,0.2134,0.123,-1.0229,0.143,-0.199,-0.93,0.002,-27.0,9.914,-22.187,6
0.7819,-0.6163,-0.0899,0.0234,-0.2084,-0.9667,0.2802,-0.691,-0.221,-0.936,27.886,28.349,-3.737,6
0.7811,-0.6082,-0.1408,-0.0058,-0.0322,-1.02,0.3476,-0.321,-0.217,-0.522,0.449,-16.187,21.149,6
0.8053,-0.5472,-0.0613,0.2195,0.0576,-0.9951,0.6367,-1.156,-1.984,-1.084,11.099,26.099,29.099,6
0.7917,-0.5633,-0.1112,0.2085,0.1196,-0.7817,0.1997,1.3,-0.155,1.112,-15.9,19.649,-12.437,6
0.7844,-0.6079,-0.0965,0.0752,-0.1108,-0.8261,0.2431,-0.044,0.401,-0.959,6.299,-14.987,18.299,6
0.7201,-0.5816,-0.2708,0.264,0.1337,-1.0288,0.1,-0.108,-0.44,0.088,-31.2,9.313,-17.237,6
0.8113,-0.5416,0.0057,0.2196,-0.1923,-0.9008,0.2631,-0.006,1.581,-0.609,-23.1,-8.687,-27.887,6
0.7912,-0.5947,-0.1396,0.0252,-0.0834,-0.9155,0.3085,-0.334,-0.413,-0.916,-15.15,-31.037,-29.087,6
0.807,-0.5551,-0.0886,0.1805,0.0644,-0.9833,0.4975,-0.58,0.255,-0.925,-1.8,30.449,22.499,6
0.777,-0.5912,-0.1299,0.1725,0.2934,-0.7392,0.2768,-0.529,0.607,-1.063,1.799,30.149,-29.237,6
0.7957,-0.6056,-0.0028,-0.003,-0.1064,-0.9179,0.2934,-0.038,0.803,-0.663,-32.25,-5.237,-20.987,6
0.8017,-0.5675,-0.098,0.1596,0.2167,-0.8344,0.2216,-0.633,0.434,-0.802,-8.7,31.199,27.899,6
0.7983,-0.5618,-0.1065,0.1885,-0.1269,-0.9365,0.2788,0.178,0.031,0.266,2.249,-15.437,11.399,6
0.7266,-0.5814,-0.2608,0.2564,0.1425,-1.0336,0.1074,-0.187,-0.672,0.066,-31.2,9.313,-17.237,6
0.7877,-0.5842,-0.1156,0.1569,-0.0346,-0.7836,0.228,-0.466,1.72,-1.157,-28.95,28.199,-8.237,6
0.8104,-0.533,-0.0854,0.2274,-0.0839,-0.8037,0.2192,1.111,-0.117,1.248,-16.8,-20.537,-31.487,6
0.7781,-0.6093,-0.0943,0.1195,0.0,-0.9921,0.2475,0.015,-0.026,-0.016,3.599,-10.637,15.599,6
0.7783,-0.6089,-0.0948,0.1197,-0.0078,-0.9946,0.246,-0.004,-0.028,-0.01,3.599,-10.637,15.599,6
0.7868,-0.5973,-0.1535,0.0197,-0.0209,-1.0034,0.3022,-0.46,-0.684,-0.928,-15.15,-31.037,-29.087,6
0.7632,-0.6338,-0.1238,0.0175,0.0644,-1.1083,0.2651,0.142,-0.482,0.73,-9.15,25.199,-16.937,6
0.7782,-0.609,-0.0936,0.1207,-0.0087,-0.9868,0.2539,-0.017,-0.015,-0.013,4.199,-11.537,15.749,6
0.7585,-0.6318,-0.1437,0.0687,0.2548,-1.0405,0.0234,0.792,-0.247,1.385,0.599,-11.687,-28.187,6
0.8197,-0.4969,-0.0533,0.2795,-0.1113,-0.9321,0.3613,0.417,-0.236,0.435,-1.65,-19.937,18.599,6
0.7926,-0.5838,-0.1301,0.118,-0.0854,-1.1533,0.3017,0.405,-0.112,0.093,3.299,-10.937,18.149,6
0.8181,-0.5065,-0.0059,0.2721,-0.2192,-0.9189,0.4028,0.265,0.521,-0.241,-23.25,25.649,-12.737,6
0.0353,-0.0319,-0.6238,0.78,-0.0351,-0.7153,0.0507,0.323,-0.786,0.402,20.549,-10.937,27.149,7
0.0518,-0.0462,-0.6246,0.7778,0.0366,-0.9838,0.1601,0.064,0.204,0.022,-12.45,-32.387,-12.887,7
0.086,-0.0739,-0.6074,0.7861,0.1337,-0.9755,0.1982,-0.19,-0.465,0.149,-12.45,30.449,-17.987,7
0.0876,-0.0885,-0.6142,0.7791,-0.0053,-1.0112,0.2231,0.435,-0.677,1.018,10.349,23.849,-25.487,7
0.1489,-0.0919,-0.6047,0.7769,-0.1176,-0.9384,0.2958,-0.396,0.748,-0.075,25.199,-17.237,26.699,7
0.125,0.0011,-0.6281,0.7679,0.2802,-0.7807,0.2788,0.101,1.063,0.022,12.449,-2.987,29.399,7
0.1193,-0.0652,-0.6079,0.7822,0.1235,-0.9965,0.2802,0.011,2.278,-0.349,-7.65,17.549,-24.587,7
0.0583,-0.0518,-0.5903,0.8033,0.3232,-1.1352,0.2392,-0.847,-0.566,-0.474,4.199,19.649,-25.487,7
0.1427,-0.0963,-0.5966,0.7838,-0.0761,-0.7382,0.2685,-0.221,-0.122,-0.358,1.799,22.049,-24.137,7
0.0768,-0.0912,-0.6217,0.7741,-0.0908,-1.0371,0.1201,0.598,-0.077,1.115,25.799,-20.387,30.299,7
0.0484,-0.0417,-0.5953,0.8009,0.2285,-1.0844,0.2514,-0.672,-0.449,-0.543,28.049,-17.987,22.199,7
0.1369,-0.0932,-0.5934,0.7876,-0.2255,-0.6044,0.103,0.008,0.919,-0.404,20.849,-18.287,24.299,7
0.1121,-0.0641,-0.6417,0.7559,0.2822,-1.2929,0.2084,-0.122,-1.585,0.527,22.349,-16.337,30.449,7
0.1129,-0.0797,-0.5959,0.7909,-0.1577,-0.6401,0.1328,-0.061,1.985,-0.727,28.049,-17.987,22.199,7
0.1266,-0.1209,-0.575,0.7991,-0.1694,-0.8427,0.288,-0.042,0.32,-0.22,-10.35,31.049,-20.687,7
0.0184,0.0955,0.5681,-0.8171,-0.1728,-1.1298,0.3154,0.365,0.91,-0.118,26.399,-28.937,26.849,7
0.1117,-0.034,-0.6627,0.7396,0.3178,-1.0341,0.2128,0.122,-1.691,-0.079,22.349,-8.687,30.749,7
0.1326,-0.0857,-0.6361,0.7552,0.1484,-1.4326,0.0732,-0.377,-1.457,0.25,25.199,-17.237,-31.937,7
0.1271,-0.0881,-0.5947,0.7889,-0.2514,-0.621,0.0747,0.001,1.418,-0.622,25.199,-17.237,26.699,7
0.0479,-0.0672,-0.6405,0.7634,-0.06,-0.996,0.1557,0.004,-0.009,-0.036,20.699,-1.187,28.049,7
0.0779,-0.024,-0.6549,0.7512,0.1767,-1.1093,0.0415,0.751,-0.107,0.719,22.349,-8.687,30.749,7
0.0451,-0.0676,-0.6407,0.7633,-0.0629,-0.9892,0.1542,0.01,0.0,-0.02,19.799,-3.287,28.649,7
0.0993,-0.0124,-0.6477,0.7552,0.0366,-1.3066,0.2294,0.462,0.272,-0.558,14.099,-2.837,30.599,7
0.1145,-0.0918,-0.5921,0.7923,-0.1757,-0.7275,0.1835,-0.141,2.026,-0.666,4.199,19.649,-25.487,7
0.0193,-0.0914,-0.5947,0.7984,-0.0771,-0.6298,0.0986,0.539,-0.752,0.713,25.799,-20.387,30.299,7
0.068,-0.083,-0.617,0.7795,-0.0107,-1.0429,0.1337,0.232,-0.433,1.108,0.449,23.099,-23.987,7
0.1568,-0.1067,-0.6012,0.7762,-0.1816,-0.9213,0.3002,-0.106,0.395,-0.109,1.799,22.049,-24.137,7
0.049,-0.0665,-0.6406,0.7633,-0.0473,-0.9936,0.1674,0.008,0.011,-0.026,20.699,-1.187,28.049,7
0.0048,-0.1156,-0.5731,0.8112,-0.1372,-1.0986,0.2294,0.175,0.629,-0.137,-9.45,28.649,-19.787,7
0.0036,-0.0926,-0.5832,0.8069,-0.0283,-0.894,0.1303,0.329,-0.044,0.572,-10.2,23.999,-17.987,7
0.1344,-0.0667,-0.6554,0.7401,-0.1088,-1.4731,0.0346,-0.29,-0.337,0.08,22.349,-8.687,30.749,7
0.0401,-0.0689,-0.5792,0.8112,0.0576,-0.8798,0.4345,0.012,-0.246,-1.265,28.049,-17.987,22.199,7
0.1217,-0.0762,-0.6388,0.7557,0.3066,-1.1357,0.1884,-0.053,-1.478,0.194,25.199,-17.237,-31.937,7
0.1242,-0.1132,-0.5799,0.7971,-0.06,-0.8852,0.3359,-0.153,-0.256,0.002,-10.35,31.049,-20.687,7
0.0842,-0.0794,-0.6203,0.7756,0.0498,-1.1132,0.104,0.313,-0.64,0.94,0.449,23.099,-23.987,7
0.1327,-0.0908,-0.5939,0.7882,-0.2368,-0.603,0.1118,0.031,1.35,-0.406,20.849,-18.287,24.299,7
0.1139,-0.1042,-0.589,0.7932,-0.0639,-0.9628,0.2031,-0.192,-0.858,-0.046,-10.35,31.049,-20.687,7
0.1352,-0.0953,-0.6234,0.7641,0.0439,-1.2695,0.0703,-0.145,-1.124,0.188,1.349,22.499,-24.887,7
0.1393,-0.0634,-0.6503,0.744,0.0034,-1.413,0.2563,-0.335,-0.134,0.383,17.549,-7.487,29.399,7
0.0082,-0.0914,-0.5776,0.8111,-0.0053,-0.8959,0.1298,0.398,-0.133,0.524,6.149,20.099,-27.137,7
0.0322,-0.0625,-0.5723,0.8169,0.1674,-0.8613,0.4272,-0.381,-0.367,-1.111,24.149,30.899,27.899,7
0.0588,-0.0785,-0.6354,0.7658,-0.0781,-0.9912,0.2031,-0.033,-0.16,-0.095,20.699,-3.887,28.799,7
0.1832,-0.1118,-0.606,0.7659,-0.207,-0.9443,0.269,-0.099,0.279,0.117,-5.85,20.549,-23.837,7
0.1372,-0.0212,-0.6317,0.7625,0.1113,-0.8598,0.2089,-0.192,0.155,0.087,14.399,-6.587,27.749,7
0.1585,-0.1173,-0.6273,0.7533,-0.2353,-1.7031,0.1181,-0.85,-1.156,-0.014,22.349,-16.337,30.449,7
0.0164,-0.1224,-0.5706,0.8118,-0.1665,-1.0786,0.2792,0.271,0.91,-0.453,-9.45,28.649,-19.787,7
0.0149,-0.1102,-0.5645,0.8178,-0.1494,-1.2534,0.2607,0.405,0.943,-0.301,6.149,20.099,-27.137,7
0.0529,-0.049,-0.6239,0.7781,0.1118,-1.019,0.1743,-0.115,-0.553,-0.029,-13.05,31.049,-15.587,7
0.0696,-0.0755,-0.6161,0.7808,-0.061,-0.9926,0.1791,-0.173,-0.581,-0.036,-13.05,31.049,-15.587,7
0.093,-0.0788,-0.6319,0.7653,0.0395,-1.142,0.0776,0.388,-0.03,1.111,25.199,-17.237,-31.937,7
0.0263,-0.1271,-0.5693,0.8117,-0.2304,-1.1108,0.2534,0.187,0.973,-0.552,-9.45,28.649,-19.787,7
0.0573,-0.0382,-0.6365,0.7681,0.0102,-0.7734,0.144,0.601,-0.299,0.5,20.549,-10.937,27.149,7
0.08,-0.021,-0.6546,0.7513,-0.0458,-1.1123,0.1215,0.009,-0.08,-0.279,14.099,-2.837,30.599,7
0.159,-0.1075,-0.6195,0.7611,-0.1953,-1.3784,0.2739,-0.615,-1.395,-0.074,25.199,-17.237,-31.937,7
0.1425,-0.0871,-0.5991,0.7829,-0.0517,-0.7988,0.2626,-0.311,-0.093,-0.142,22.049,-17.837,26.849,7
0.0835,-0.0192,-0.6536,0.7518,-0.0668,-1.1513,0.1108,0.151,0.131,-0.235,14.099,-2.837,30.599,7
0.0928,-0.0598,-0.6419,0.7587,0.2734,-1.3203,0.0292,0.214,-0.919,0.885,22.349,-16.337,30.449,7
0.0994,-0.0789,-0.6239,0.7711,0.0927,-1.1601,0.0566,0.136,-0.51,0.822,0.449,23.099,-23.987,7
0.0404,-0.0946,-0.5759,0.8109,-0.1308,-1.4057,0.2387,-0.213,0.281,-0.939,-1.8,18.599,-26.087,7
0.1414,-0.0934,-0.5936,0.7866,-0.1821,-0.623,0.1538,-0.059,0.124,-0.36,22.049,-17.837,26.849,7
0.1368,-0.0666,-0.6528,0.742,-0.0693,-1.5595,0.1513,-0.397,0.073,0.32,22.349,-8.687,30.749,7
0.109,-0.0693,-0.6374,0.7596,0.2602,-1.0898,0.3154,0.325,-0.597,0.578,25.199,-17.237,-31.937,7
0.0766,-0.0535,-0.6459,0.7576,-0.1284,-0.9799,0.1899,0.038,0.188,-0.302,18.899,-1.637,29.099,7
0.1386,-0.0915,-0.636,0.7535,0.1948,-1.1577,0.1425,0.051,-2.059,-0.221,22.349,-16.337,30.449,7
0.1393,-0.0951,-0.6219,0.7646,0.1191,-1.4428,0.1235,-0.198,-1.022,0.455,-5.85,20.549,-23.837,7
0.079,-0.0293,-0.6528,0.7527,-0.0727,-0.9692,0.0751,-0.042,-0.176,-0.215,18.899,-1.637,29.099,7
0.0533,-0.071,-0.6389,0.7641,-0.0722,-1.0068,0.208,0.046,0.226,0.033,18.749,-2.987,28.199,7
0.059,-0.0821,-0.6354,0.7655,-0.1513,-0.9692,0.2416,0.089,0.34,0.05,18.749,-2.987,28.199,7
0.001,0.1079,0.5743,-0.8114,-0.0986,-0.9907,0.1855,0.112,0.26,0.168,-9.45,28.649,-19.787,7
0.1275,-0.1166,-0.5776,0.7977,-0.0683,-0.9184,0.3574,-0.084,-0.257,-0.043,-10.35,31.049,-20.687,7
0.1371,-0.0195,-0.6306,0.7636,0.1298,-0.8071,0.2163,-0.139,0.045,0.07,14.399,-6.587,27.749,7
0.0268,-0.0971,-0.5745,0.8122,-0.1406,-1.1767,0.2143,0.238,0.568,-0.735,1.049,20.549,-26.687,7
0.0713,-0.0777,-0.6152,0.7812,-0.0722,-0.9843,0.1977,-0.153,-0.431,0.006,-13.05,31.049,-15.587,7
0.0487,-0.103,-0.564,0.8178,-0.1323,-1.0244,0.4521,0.131,-0.131,-1.498,4.199,19.649,-25.487,7
0.1795,-0.114,-0.6071,0.7655,-0.2358,-1.0561,0.1665,-0.118,-0.29,0.193,-5.85,20.549,-23.837,7
0.0072,-0.0919,-0.5807,0.8088,-0.0307,-0.8852,0.1992,0.259,-0.349,0.182,1.049,20.549,-26.687,7
0.1458,-0.1021,-0.6182,0.7655,-0.1606,-1.4975,0.1508,-0.59,-0.355,0.187,1.349,22.499,-24.887,7
0.1603,-0.0903,-0.6049,0.7747,-0.144,-1.0209,0.3427,-0.197,0.924,-0.185,18.149,29.099,-31.637,7
0.1448,-0.0863,-0.6028,0.7798,-0.0864,-0.832,0.2905,-0.367,0.476,-0.192,25.199,-17.237,26.699,7
0.0891,-0.0722,-0.5927,0.7971,0.061,-0.9238,0.2993,-0.18,2.135,-0.521,4.199,19.649,-25.487,7
0.0195,0.0703,0.5892,-0.8046,0.0141,-0.9223,0.1308,0.324,-1.156,0.604,25.499,-19.187,23.399,7
0.023,-0.0885,-0.5967,0.7972,-0.1796,-0.6704,0.0185,0.446,-1.067,0.953,18.149,-14.537,30.299,7
0.046,-0.0477,-0.5932,0.8023,0.1665,-1.1162,0.2397,-0.392,0.46,-0.672,24.149,30.899,27.899,7
0.0913,-0.0949,-0.5823,0.8021,0.1743,-0.8574,0.3066,0.063,0.073,-0.436,-8.4,28.949,-19.487,7
0.0064,-0.0911,-0.5786,0.8104,-0.0278,-0.9477,0.228,0.164,0.07,0.033,1.049,20.549,-26.687,7
0.1682,-0.0982,-0.6172,0.7622,-0.062,-1.4604,0.3208,-0.535,-0.247,0.112,16.799,27.449,-27.437,7
0.1048,-0.0826,-0.6178,0.7749,0.0439,-1.0898,0.0805,0.039,-0.624,0.73,-10.2,20.999,-20.237,7
0.0356,-0.0543,-0.5789,0.8127,0.2094,-1.0332,0.3955,-0.877,-0.463,-0.682,24.149,30.899,27.899,7
0.0874,-0.0599,-0.6406,0.7604,0.2812,-1.3061,0.0854,0.369,-0.689,0.918,22.349,-16.337,30.449,7
0.1432,-0.0877,-0.6016,0.7809,-0.0239,-0.8808,0.2602,-0.319,0.131,-0.053,22.049,-17.837,26.849,7
0.1379,-0.065,-0.6516,0.743,-0.0292,-1.5107,0.2031,-0.402,0.027,0.384,17.549,-7.487,29.399,7
0.1633,-0.0687,-0.636,0.751,-0.2172,-0.9331,0.229,-0.345,0.338,0.088,17.549,-7.487,29.399,7
0.0107,-0.0942,-0.5825,0.8072,-0.0634,-0.8984,0.1499,0.232,-0.557,0.268,1.049,20.549,-26.687,7
0.0449,-0.0677,-0.6407,0.7633,-0.0571,-0.9892,0.1606,0.004,-0.006,-0.024,19.799,-3.287,28.649,7
0.151,-0.0997,-0.6006,0.7787,-0.1303,-0.9179,0.2783,-0.209,0.427,-0.135,1.799,22.049,-24.137,7
0.0706,-0.0501,-0.5986,0.7963,0.2055,-0.9506,0.3276,0.011,1.688,-0.558,28.049,-17.987,22.199,7
0.1805,-0.0989,-0.6073,0.7672,-0.0625,-0.9497,0.2553,-0.155,0.236,0.092,-7.65,17.549,-24.587,7
0.162,-0.0989,-0.6025,0.7751,-0.2226,-0.7377,0.1445,-0.093,1.825,-0.63,-7.65,17.549,-24.587,7
0.0455,-0.0675,-0.6406,0.7634,-0.0605,-0.999,0.1518,0.01,0.014,-0.015,18.899,-2.387,28.049,7
0.1321,-0.0902,-0.5944,0.788,-0.2617,-0.5937,0.0615,-0.019,0.984,-0.561,25.199,-17.237,26.699,7
0.0462,-0.0676,-0.6405,0.7634,-0.0678,-1.0029,0.1557,0.005,0.015,-0.018,18.899,-2.387,28.049,7
0.047,-0.0676,-0.6404,0.7635,-0.0639,-1.0043,0.163,0.002,0.013,-0.026,18.899,-2.387,28.049,7
0.1598,-0.1119,-0.6041,0.7725,-0.2636,-1.0581,0.2221,-0.307,-0.02,-0.036,1.349,22.499,-24.887,7
0.0455,-0.0592,-0.5825,0.8093,0.1406,-0.7949,0.3593,-0.466,-0.566,-0.957,28.049,-17.987,22.199,7
0.1693,-0.1204,-0.611,0.7638,-0.3886,-1.1523,0.1855,-0.436,-0.541,-0.133,25.199,-17.237,-31.937,7
0.0606,-0.0848,-0.6341,0.7661,-0.1572,-0.9384,0.2138,-0.024,-0.047,-0.056,20.699,-3.887,28.799,7
0.1538,-0.1061,-0.6094,0.7705,-0.1074,-1.1362,0.289,-0.218,-0.612,0.013,1.349,22.499,-24.887,7
0.0386,-0.0598,-0.6019,0.7953,-0.1723,-1.3442,0.2465,0.306,1.185,-0.507,22.349,-15.587,21.299,7
0.1459,-0.0877,-0.6042,0.7783,-0.1352,-0.7983,0.1938,-0.07,2.31,-0.592,-7.65,17.549,-24.587,7
0.1285,-0.0029,-0.6272,0.7681,0.2075,-0.8535,0.2666,0.031,1.134,0.008,12.449,-2.987,29.399,7
0.089,-0.0819,-0.6295,0.7674,0.0039,-1.1225,0.0698,0.527,-0.018,1.118,25.199,-17.237,-31.937,7
0.0738,-0.08,-0.6139,0.7818,-0.0888,-0.9902,0.2153,-0.102,-0.151,0.072,-13.05,31.049,-15.587,7
0.1618,-0.1143,-0.6042,0.7717,-0.2265,-0.9448,0.2983,-0.432,1.225,-0.085,22.049,-17.837,26.849,7
0.0822,-0.04,-0.6061,0.79,0.1914,-0.9755,0.2373,0.237,2.139,0.03,20.849,-18.287,24.299,7
0.0505,-0.0954,-0.597,0.7949,-0.0834,-0.6513,0.1015,0.516,-0.616,0.829,10.349,23.849,-25.487,7
0.064,-0.0164,-0.6087,0.7905,0.4296,-0.996,0.2753,-0.379,-0.345,-0.207,20.849,-18.287,24.299,7
0.0515,-0.0679,-0.6396,0.7639,-0.0527,-0.9726,0.1855,0.004,0.105,-0.003,18.749,-2.987,28.199,7
0.0789,-0.0304,-0.6525,0.753,-0.0673,-0.9687,0.0751,-0.031,-0.223,-0.224,18.899,-1.637,29.099,7
0.023,-0.0266,-0.6212,0.7828,-0.0131,-0.833,0.0,0.25,-0.797,0.482,20.549,-10.937,27.149,7
0.0188,-0.1125,-0.5635,0.8181,-0.1826,-1.3535,0.247,0.296,0.846,-0.361,6.149,20.099,-27.137,7
0.05,-0.0399,-0.5973,0.7993,0.267,-1.0981,0.2739,-0.501,-0.132,-0.517,28.049,-17.987,22.199,7
0.0796,-0.0349,-0.6515,0.7535,-0.083,-0.9643,0.0668,-0.022,-0.409,-0.263,18.899,-1.637,29.099,7
0.1612,-0.0701,-0.6388,0.7489,-0.1577,-0.9687,0.2182,-0.425,-0.224,0.091,17.549,-7.487,29.399,7
0.0482,-0.079,-0.6063,0.7898,0.0805,-0.9663,0.1225,0.271,-0.516,0.864,-10.2,20.999,-20.237,7
0.0598,-0.0834,-0.6348,0.7657,-0.1577,-0.9526,0.225,0.089,0.297,0.029,20.699,-3.887,28.799,7
0.1096,-0.0088,-0.6404,0.76,0.1074,-1.103,0.2724,0.694,0.343,-0.635,14.099,-2.837,30.599,7
0.1381,-0.0238,-0.6327,0.7615,0.0937,-0.8764,0.2026,-0.185,0.278,0.064,14.399,-6.587,27.749,7
0.0819,-0.0476,-0.6482,0.7554,-0.1733,-0.9404,0.1103,-0.122,-0.281,-0.341,18.899,-1.637,29.099,7
0.1649,-0.1194,-0.6051,0.7696,-0.3037,-0.9711,0.268,-0.507,1.181,-0.059,22.049,-17.837,26.849,7
0.1085,-0.0966,-0.5932,0.7918,0.0024,-1.0649,0.2504,-0.467,-1.007,-0.042,-10.35,31.049,-20.687,7
0.1525,-0.1015,-0.601,0.7779,-0.1411,-0.9384,0.2651,-0.191,0.455,-0.112,1.799,22.049,-24.137,7
0.0602,-0.0876,-0.6184,0.7785,-0.0625,-0.6625,0.1821,0.613,0.057,0.838,18.149,-14.537,30.299,7
0.0478,-0.0449,-0.5924,0.8028,0.2099,-1.0625,0.2612,-0.793,-0.632,-0.602,28.049,-17.987,22.199,7
0.0643,-0.0182,-0.6071,0.7917,0.3979,-0.9248,0.2802,-0.449,-0.723,-0.372,20.849,-18.287,24.299,7
0.0924,-0.0801,-0.6035,0.7878,0.1137,-1.018,0.2055,-0.362,-0.892,0.069,-12.45,30.449,-17.987,7
0.0506,-0.0671,-0.6399,0.7638,-0.0493,-0.9667,0.1845,0.012,0.04,-0.007,18.749,-2.987,28.199,7
0.0577,-0.0959,-0.6127,0.7822,-0.1162,-0.8666,0.2045,0.487,-0.637,0.895,25.799,-20.387,30.299,7
0.1437,-0.0957,-0.5974,0.783,-0.0712,-0.7553,0.2695,-0.187,0.025,-0.29,1.799,22.049,-24.137,7
0.0816,-0.0437,-0.6496,0.7546,-0.1464,-0.9521,0.0673,-0.099,-0.362,-0.32,18.899,-1.637,29.099,7
0.1233,-0.1123,-0.5806,0.7968,-0.0834,-0.894,0.3315,-0.169,-0.271,0.008,-10.35,31.049,-20.687,7
0.002,-0.0942,-0.5819,0.8077,-0.0297,-0.8935,0.1435,0.33,0.059,0.542,-10.2,23.999,-17.987,7
0.1625,-0.1209,-0.6233,0.7552,-0.2524,-1.5747,0.2041,-0.849,-0.895,-0.059,22.349,-16.337,30.449,7
0.1441,-0.0997,-0.6347,0.7526,0.1108,-1.3095,0.0947,-0.054,-1.827,-0.176,22.349,-16.337,30.449,7
0.0055,-0.09,-0.5769,0.8118,-0.1611,-1.2119,0.2739,0.257,0.778,-0.691,25.499,-19.187,23.399,7
0.1541,-0.0939,-0.6246,0.7597,0.1069,-1.0649,0.1904,0.075,-0.893,0.181,16.799,27.449,-27.437,7
0.0797,-0.053,-0.6459,0.7573,-0.1679,-0.9384,0.1665,-0.027,0.122,-0.348,18.899,-1.637,29.099,7
0.0505,-0.067,-0.64,0.7637,-0.0561,-0.9765,0.1811,0.008,0.041,-0.013,18.749,-2.987,28.199,7
0.1677,-0.1259,-0.6164,0.7589,-0.2553,-1.2456,0.31,-0.519,-0.568,-0.079,22.349,-16.337,30.449,7
0.0664,-0.0764,-0.5843,0.8051,0.0429,-1.0693,0.4033,-0.206,-0.177,-1.476,-1.8,18.599,-26.087,7
0.149,-0.0965,-0.6034,0.7773,-0.0708,-0.914,0.3261,-0.208,0.803,-0.028,22.049,-17.837,26.849,7
0.0287,-0.0674,-0.5706,0.8179,0.121,-0.8803,0.4331,-0.161,-0.201,-1.293,24.149,30.899,27.899,7
0.0087,-0.0929,-0.5817,0.808,-0.0488,-0.8999,0.1718,0.254,-0.472,0.239,1.049,20.549,-26.687,7
0.0566,-0.09,-0.5665,0.8171,0.0175,-0.7646,0.4194,-0.222,-0.804,-1.406,4.199,19.649,-25.487,7
0.1189,-0.0682,-0.6405,0.7555,0.2963,-1.2226,0.27,-0.131,-1.951,0.221,22.349,-16.337,30.449,7
0.0074,0.0768,0.5917,-0.8024,-0.0678,-0.9028,0.0351,0.246,-1.545,0.864,18.149,-14.537,30.299,7
0.0753,-0.0264,-0.6521,0.7538,0.121,-1.1152,0.0737,0.726,0.061,0.773,22.349,-8.687,30.749,7
0.0305,-0.078,-0.5792,0.8108,0.0048,-1.0986,0.4326,0.156,0.074,-1.316,28.049,-17.987,22.199,7
0.0766,-0.0535,-0.6459,0.7576,-0.1284,-0.9799,0.1899,0.038,0.188,-0.302,18.899,-1.637,29.099,7
0.0061,-0.0909,-0.5791,0.81,-0.0278,-0.9057,0.2133,0.216,-0.088,0.06,1.049,20.549,-26.687,7
0.0891,-0.0962,-0.5824,0.8022,0.1811,-0.8569,0.3056,0.052,-0.066,-0.533,-8.4,28.949,-19.487,7
0.0818,-0.0494,-0.6476,0.7559,-0.1821,-0.9365,0.1284,-0.147,-0.222,-0.367,18.899,-1.637,29.099,7
0.0315,-0.0969,-0.5743,0.8122,-0.1552,-1.2412,0.2104,0.142,0.527,-0.815,-1.8,18.599,-26.087,7
0.0683,-0.0924,-0.6063,0.7868,-0.0205,-0.8056,0.2167,0.488,-0.286,0.959,10.349,23.849,-25.487,7
0.0008,-0.0961,-0.5806,0.8084,-0.0297,-0.8964,0.1455,0.325,0.165,0.492,-10.2,23.999,-17.987,7
0.0285,-0.093,-0.5995,0.7944,-0.0693,-0.6416,0.1328,0.561,-0.707,0.733,25.799,-20.387,30.299,7
0.0583,-0.0551,-0.5867,0.8057,0.3129,-1.0766,0.2348,-1.015,-0.953,-0.648,4.199,19.649,-25.487,7
0.0818,-0.0458,-0.6489,0.755,-0.1591,-0.9404,0.0864,-0.106,-0.318,-0.338,18.899,-1.637,29.099,7
0.081,-0.0883,-0.6242,0.7719,-0.061,-1.0732,0.1025,0.614,-0.003,1.138,25.799,-20.387,30.299,7
0.0238,0.0827,0.5793,-0.8104,-0.0273,-0.9301,0.1674,0.38,-0.305,0.454,26.399,-28.937,26.849,7
0.1772,-0.1129,-0.6079,0.7656,-0.2148,-1.082,0.1572,-0.122,-0.487,0.216,-5.85,20.549,-23.837,7
0.0792,-0.0332,-0.6519,0.7533,-0.0732,-0.9824,0.0673,-0.026,-0.325,-0.227,18.899,-1.637,29.099,7
0.0793,-0.1072,-0.5807,0.803,0.0288,-0.8994,0.333,-0.217,-0.157,-0.872,-8.4,28.949,-19.487,7
0.001,0.1038,0.576,-0.8107,-0.0693,-0.8945,0.1586,0.285,0.246,0.292,-10.2,23.999,-17.987,7
0.1774,-0.1061,-0.6079,0.7665,-0.2548,-1.1396,0.1635,-0.343,-0.341,-0.14,16.799,27.449,-27.437,7
0.1424,-0.0903,-0.5954,0.7854,-0.1069,-0.6831,0.2187,-0.193,-0.271,-0.285,22.049,-17.837,26.849,7
0.1815,-0.114,-0.6065,0.7655,-0.246,-1.0141,0.205,-0.119,-0.069,0.162,-5.85,20.549,-23.837,7
0.0812,-0.0416,-0.6502,0.7542,-0.1225,-0.9443,0.0551,-0.084,-0.404,-0.3,18.899,-1.637,29.099,7
0.0468,-0.0676,-0.6404,0.7635,-0.061,-1.0034,0.1645,0.003,0.011,-0.021,18.899,-2.387,28.049,7
0.1255,-0.0532,-0.6598,0.7388,0.1132,-1.1948,0.1157,-0.214,-1.375,-0.298,22.349,-8.687,30.749,7
0.1811,-0.1023,-0.6072,0.7668,-0.0727,-0.9448,0.2475,-0.072,0.306,0.103,-7.65,17.549,-24.587,7
0.132,-0.0637,-0.6566,0.7397,-0.0605,-1.3671,0.0292,-0.193,-0.803,-0.056,22.349,-8.687,30.749,7
0.1318,-0.007,-0.6266,0.768,0.1542,-0.9038,0.2392,-0.035,1.08,0.013,12.449,-2.987,29.399,7
0.0394,-0.0484,-0.5894,0.8054,0.1328,-1.1479,0.2612,-0.698,0.022,-0.506,24.149,30.899,27.899,7
0.0581,-0.0576,-0.6215,0.7791,0.0795,-1.0083,0.1855,-0.172,-0.913,-0.092,-13.05,31.049,-15.587,7
0.0056,-0.022,-0.6169,0.7866,0.0649,-0.9477,0.0717,0.191,-0.369,0.406,20.549,-10.937,27.149,7
0.0545,-0.0732,-0.6382,0.7644,-0.0761,-1.0185,0.2221,0.056,0.262,0.055,18.749,-2.987,28.199,7
0.102,-0.0244,-0.663,0.7411,0.3071,-1.0263,0.1811,0.095,-1.266,0.29,22.349,-8.687,30.749,7
0.0216,0.0922,0.5694,-0.8165,-0.1098,-1.1083,0.3369,0.4,0.796,0.007,26.399,-28.937,26.849,7
0.0257,0.0679,0.5867,-0.8064,0.0449,-0.9858,0.1616,0.318,-0.397,0.414,25.499,-19.187,23.399,7
0.0801,-0.037,-0.6512,0.7537,-0.0927,-0.9565,0.0571,-0.028,-0.448,-0.282,18.899,-1.637,29.099,7
0.0619,-0.0497,-0.6003,0.7957,0.0083,-1.0883,0.3706,0.234,-0.248,-0.961,22.349,-15.587,21.299,7
0.1285,-0.1199,-0.5762,0.7981,-0.1254,-0.8735,0.3276,-0.104,-0.14,-0.185,-10.35,31.049,-20.687,7
0.0971,-0.0223,-0.6632,0.7416,0.2841,-1.0883,0.1113,0.052,-0.996,0.466,22.349,-8.687,30.749,7
0.0512,-0.0455,-0.6248,0.7777,0.0541,-0.9975,0.1621,0.063,0.164,0.022,-12.45,-32.387,-12.887,7
0.0895,-0.0487,-0.604,0.7904,0.0981,-0.8955,0.2109,0.323,2.381,-0.044,20.849,-18.287,24.299,7
0.126,-0.0863,-0.6245,0.7658,0.1699,-1.0761,0.2338,0.107,-1.366,0.16,1.349,22.499,-24.887,7
0.006,0.1018,0.5649,-0.8188,-0.2446,-1.1601,0.2143,0.303,0.672,-0.582,26.399,-28.937,26.849,7
0.0772,-0.0896,-0.6105,0.783,0.0097,-0.9101,0.2617,0.441,-0.511,0.994,10.349,23.849,-25.487,7
0.0627,-0.0847,-0.6159,0.7806,-0.0175,-1.0161,0.1416,0.229,-0.409,1.099,0.449,23.099,-23.987,7
0.0261,0.0845,0.5742,-0.8138,0.0029,-1.0029,0.2729,0.443,0.147,0.225,26.399,-28.937,26.849,7
0.1221,-0.0966,-0.592,0.7906,-0.2192,-0.6958,0.1489,-0.165,1.745,-0.7,4.199,19.649,-25.487,7
0.0389,-0.0964,-0.6007,0.7926,-0.0556,-0.7021,0.1962,0.696,0.113,0.646,0.449,23.099,-23.987,7
0.1694,-0.1278,-0.614,0.7602,-0.3032,-1.1645,0.2592,-0.497,-0.338,-0.084,22.349,-16.337,30.449,7
0.0038,-0.0945,-0.5735,0.8136,-0.0063,-0.9824,0.1977,0.332,0.021,0.42,6.149,20.099,-27.137,7
0.0783,-0.0534,-0.6458,0.7575,-0.1381,-0.9614,0.1855,0.024,0.196,-0.335,18.899,-1.637,29.099,7
0.0355,-0.1004,-0.5953,0.7963,-0.1142,-0.6855,0.1391,0.591,0.087,0.575,0.449,23.099,-23.987,7
0.1289,-0.059,-0.6582,0.7393,0.0244,-1.2539,0.08,-0.203,-1.187,-0.203,22.349,-8.687,30.749,7
0.0641,-0.045,-0.5999,0.7961,0.0703,-0.9316,0.3422,0.158,-0.504,-0.907,20.849,-18.287,24.299,7
0.0023,-0.0967,-0.5712,0.815,-0.0058,-1.0566,0.2744,0.3,0.148,0.296,6.149,20.099,-27.137,7
0.0038,-0.0222,-0.6163,0.7871,0.0874,-0.9721,0.0893,0.214,-0.188,0.377,22.349,-15.587,21.299,7
0.0471,-0.0676,-0.6404,0.7635,-0.0629,-0.9985,0.1689,0.005,0.012,-0.026,18.899,-2.387,28.049,7
0.1279,-0.0731,-0.6066,0.7812,0.0244,-0.9282,0.2553,0.01,2.403,-0.429,-7.65,17.549,-24.587,7
0.066,-0.0652,-0.641,0.7618,-0.0913,-0.9741,0.1577,-0.061,-0.037,-0.339,20.399,-2.837,26.999,7
0.0028,-0.0955,-0.5723,0.8144,0.0043,-1.0136,0.2314,0.319,0.043,0.373,6.149,20.099,-27.137,7
0.0147,-0.0961,-0.5766,0.8111,-0.1147,-1.1445,0.2128,0.164,0.437,-0.38,1.049,20.549,-26.687,7
0.1598,-0.1119,-0.6029,0.7735,-0.2607,-1.0092,0.2519,-0.263,0.14,-0.061,1.349,22.499,-24.887,7
0.0999,-0.098,-0.5809,0.8017,0.1064,-0.9311,0.248,0.128,0.776,-0.216,-8.4,28.949,-19.487,7
0.1541,-0.1033,-0.6012,0.7772,-0.1591,-0.9497,0.2783,-0.145,0.479,-0.117,1.799,22.049,-24.137,7
0.0697,-0.0738,-0.6289,0.7708,0.0292,-0.9404,0.2548,0.566,0.286,0.986,18.149,-14.537,30.299,7
0.1686,-0.1027,-0.6019,0.7737,-0.2597,-0.726,0.1171,-0.078,1.471,-0.615,-7.65,17.549,-24.587,7
0.0097,-0.0891,-0.591,0.8016,-0.0839,-0.6977,0.0659,0.377,-0.827,0.681,25.799,-20.387,30.299,7
0.0575,-0.0419,-0.5992,0.7973,0.3076,-1.0659,0.2954,-0.174,0.903,-0.509,28.049,-17.987,22.199,7
0.1632,-0.1124,-0.6161,0.7623,-0.2514,-1.2495,0.2534,-0.456,-1.237,-0.103,25.199,-17.237,-31.937,7
0.0129,-0.0802,-0.5689,0.8183,0.0488,-1.1918,0.4916,0.035,-0.17,-1.361,24.149,30.899,27.899,7
0.1597,-0.1109,-0.6021,0.7743,-0.2583,-0.9609,0.2827,-0.219,0.275,-0.08,1.799,22.049,-24.137,7
0.0354,-0.0907,-0.6011,0.7931,-0.1606,-0.5913,0.0839,0.677,-0.717,0.892,18.149,-14.537,30.299,7
0.0461,-0.0365,-0.628,0.7759,-0.0297,-0.6665,0.1279,0.516,-0.548,0.402,20.549,-10.937,27.149,7
0.0946,-0.079,-0.6229,0.7725,0.0771,-1.144,0.0498,0.254,-0.602,0.838,0.449,23.099,-23.987,7
0.1208,-0.1111,-0.5838,0.7951,-0.1391,-1.0605,0.2573,-0.463,-0.317,0.076,-10.35,31.049,-20.687,7
0.0239,0.089,0.5709,-0.8157,-0.0561,-1.0854,0.3261,0.429,0.609,0.098,26.399,-28.937,26.849,7
0.0494,-0.0664,-0.6405,0.7634,-0.041,-0.9853,0.165,0.014,0.015,-0.036,20.699,-1.187,28.049,7
0.0626,-0.0776,-0.6095,0.7864,0.0498,-1.018,0.1713,0.35,-0.643,0.964,-10.2,20.999,-20.237,7
0.1375,-0.0901,-0.5952,0.7865,-0.2128,-0.601,0.0981,-0.156,0.123,-0.458,25.199,-17.237,26.699,7
0.0569,-0.05,-0.5943,0.8006,0.1948,-0.9995,0.2861,-0.098,1.013,-0.754,24.149,30.899,27.899,7
0.1542,-0.0837,-0.6044,0.777,-0.1147,-0.975,0.3134,-0.396,0.766,-0.26,18.149,29.099,-31.637,7
0.0606,-0.0849,-0.6341,0.7661,-0.1713,-0.9277,0.2216,0.049,0.119,-0.019,20.699,-3.887,28.799,7
0.1229,-0.1186,-0.5752,0.7999,-0.1425,-0.8486,0.2871,0.075,0.651,-0.223,-8.4,28.949,-19.487,7
0.0717,-0.0566,-0.5946,0.7987,0.0708,-0.8437,0.2626,-0.125,1.596,-0.811,24.149,30.899,27.899,7
0.097,-0.0757,-0.6337,0.7636,0.0947,-1.1528,0.1264,0.268,-0.054,1.084,25.199,-17.237,-31.937,7
0.1429,-0.0848,-0.6016,0.7812,-0.0683,-0.7949,0.2885,-0.298,0.311,-0.249,25.199,-17.237,26.699,7
0.1637,-0.0938,-0.6043,0.774,-0.1708,-0.9794,0.3393,-0.066,0.99,-0.205,18.149,29.099,-31.637,7
0.7187,-0.5881,0.2543,-0.2698,-0.0146,-0.9208,0.0131,-0.335,-0.43,-0.046,19.049,-22.487,24.299,8
0.7179,-0.5903,0.2536,-0.2678,-0.02,-0.9003,0.0268,-0.176,-0.173,0.053,19.049,-22.487,24.299,8
0.6912,-0.5497,0.3071,-0.3545,-0.0952,-0.8632,0.2421,0.086,0.324,-0.003,14.099,-27.287,29.549,8
0.7115,-0.5403,0.2938,-0.3397,-0.0336,-1.2495,0.2348,-0.056,-0.634,0.28,26.399,-15.587,19.499,8
0.6964,-0.5809,0.2944,-0.3011,0.228,-1.0888,0.1875,-0.204,-0.194,0.308,6.149,-28.487,-30.437,8
0.6901,-0.5615,0.3242,-0.3212,-0.2343,-0.9497,0.2875,-0.217,-0.285,-0.106,12.749,-12.437,-31.787,8
0.7214,-0.5977,0.256,-0.2378,0.1704,-1.1621,-0.0571,0.16,-0.904,0.138,-21.15,-13.037,-11.687,8
0.6982,-0.5781,0.3,-0.2969,-0.1518,-1.4624,0.0273,-0.173,-1.325,0.394,-7.05,19.949,-11.987,8
0.706,-0.5686,0.2864,-0.3099,-0.0673,-1.2241,0.1362,0.396,0.4,0.109,15.599,25.349,-21.137,8
0.6948,-0.6004,0.28,-0.2796,-0.1811,-0.9467,-0.0893,0.08,0.014,0.045,1.049,-24.737,-26.087,8
0.697,-0.5784,0.3045,-0.2945,0.0737,-0.9565,0.0913,0.132,0.043,0.02,22.949,31.799,-22.937,8
0.6959,-0.5812,0.2959,-0.3005,0.1728,-1.0683,0.208,-0.23,0.15,0.225,6.149,-28.487,-30.437,8
0.6956,-0.556,0.3015,-0.3403,0.0913,-0.9125,0.229,0.331,-0.049,-0.167,-21.6,-27.737,-8.987,8
0.6877,-0.5535,0.3157,-0.3477,-0.1777,-1.4423,0.1733,-0.292,-0.185,0.336,13.649,-29.837,30.599,8
0.6935,-0.5982,0.2832,-0.2842,0.1337,-1.2202,-0.0751,0.33,-1.075,0.395,16.049,-8.237,-32.537,8
0.6873,-0.5713,0.3189,-0.315,-0.249,-1.0117,0.2309,-0.345,-0.28,-0.225,12.749,-12.437,-31.787,8
0.7057,-0.5749,0.2827,-0.3022,-0.0571,-0.9477,0.0195,-0.183,-0.769,-0.157,-4.5,10.213,-29.087,8
0.6946,-0.5558,0.2983,-0.3454,-0.1738,-0.7578,0.1518,-0.183,-0.631,0.108,-21.6,-27.737,-8.987,8
0.6885,-0.5711,0.3056,-0.3258,0.1079,-1.0209,-0.1142,-0.323,-1.374,0.211,6.149,-28.487,-30.437,8
0.6946,-0.5591,0.3341,-0.3051,0.0405,-0.7128,0.2236,0.699,1.274,-0.1,9.299,-14.537,-29.837,8
0.6859,-0.5766,0.3153,-0.3122,-0.3129,-1.1762,0.1083,-0.25,-0.463,-0.136,16.049,-8.237,-32.537,8
0.6871,-0.5616,0.3138,-0.3374,-0.0307,-1.0039,0.0844,-0.355,-0.503,-0.141,6.149,-28.487,-30.437,8
0.7138,-0.5658,0.3224,-0.2575,-0.1655,-0.9648,0.2109,-0.092,0.017,-0.075,26.849,-6.737,15.149,8
0.6983,-0.5822,0.2878,-0.3007,-0.1064,-0.8559,0.0244,0.101,-0.407,-0.229,15.599,25.349,-21.137,8
0.7013,-0.5297,0.3045,-0.3669,-0.0815,-0.9624,0.3852,-0.009,-0.069,0.131,26.849,-12.887,17.699,8
0.7153,-0.585,0.2719,-0.2684,0.1083,-0.7402,0.1059,-0.239,-0.833,-0.287,-14.7,23.999,-6.737,8
0.7125,-0.5594,0.2919,-0.3066,-0.1132,-1.2426,0.1572,0.29,0.915,-0.051,-20.85,32.399,-5.237,8
0.7071,-0.5796,0.2758,-0.2964,-0.0498,-0.9804,-0.0512,-0.105,-1.132,-0.044,-4.5,10.213,-29.087,8
0.717,-0.5619,0.3238,-0.255,-0.1875,-0.979,0.1474,0.018,0.031,-0.015,27.149,-4.937,16.199,8
0.7056,-0.5727,0.2854,-0.3042,-0.0302,-0.9541,0.0742,-0.178,-0.646,-0.148,-4.5,10.213,-29.087,8
0.6948,-0.5813,0.2976,-0.3009,0.101,-1.0043,0.2148,-0.245,0.367,0.126,6.149,-28.487,-30.437,8
0.6892,-0.5551,0.3228,-0.3353,-0.2509,-1.229,0.4399,0.013,2.008,-0.205,-15.15,2.563,-18.137,8
0.6927,-0.5738,0.3047,-0.313,-0.0898,-1.0292,0.437,-0.013,0.68,-0.285,16.649,-25.337,26.999,8
0.6981,-0.5881,0.2842,-0.2929,-0.0996,-1.1928,0.103,0.405,0.955,-0.253,24.899,-12.437,31.199,8
0.7143,-0.5651,0.3227,-0.2572,-0.1816,-0.9628,0.185,-0.08,-0.011,-0.063,26.849,-6.737,15.149,8
0.6949,-0.5988,0.2793,-0.2835,0.0004,-0.7285,0.0185,-0.115,-0.064,-0.064,21.599,-9.137,31.199,8
0.6915,-0.5512,0.3055,-0.3528,-0.0541,-0.8603,0.267,0.069,0.04,-0.017,14.099,-27.287,29.549,8
0.6879,-0.5976,0.2742,-0.3071,-0.2114,-0.9819,0.0185,-0.018,0.124,-0.409,25.349,-5.687,19.199,8
